time,seconds_elapsed,z,y,x
1667255028042851300,0.073851318359375,7.527820110321045,0.6269195079803467,7.393822193145752
1667255028045380000,0.076380126953125,7.491927623748779,0.5647061467170715,7.491927623748779
1667255028047909000,0.0789091796875,7.389036178588867,0.5000999569892883,7.57806921005249
1667255028050438000,0.08143798828125,7.307680130004883,0.4378865361213684,7.661818027496338
1667255028052967000,0.083966796875,7.238288402557373,0.4091726839542389,7.690532207489014
1667255028055495700,0.08649560546875,7.101897716522217,0.4498506486415863,7.7455668449401855
1667255028058024400,0.0890244140625,6.927221775054932,0.5479564070701599,7.814958572387695
1667255028060553500,0.091553466796875,6.714260101318359,0.6795616149902344,7.8556365966796875
1667255028063082200,0.094082275390625,6.534798622131348,0.8183453679084778,7.891529083251953
1667255028065611300,0.096611328125,6.329015731811523,0.9595218896865845,7.929814338684082
1667255028068140000,0.09914013671875,6.192625045776367,1.0528420209884644,7.936992645263672
1667255028070669000,0.1016689453125,6.0538411140441895,1.1198409795761108,7.901100158691406
1667255028073197800,0.10419775390625,5.912664890289307,1.160519003868103,7.817351341247559
1667255028075726800,0.106726806640625,5.793023586273193,1.1509476900100708,7.740781307220459
1667255028078255600,0.109255615234375,5.714060306549072,1.1078768968582153,7.6498541831970215
1667255028080784600,0.11178466796875,5.66620397567749,1.031306505203247,7.5326056480407715
1667255028083313400,0.1143134765625,5.670989513397217,0.9212366938591003,7.396214962005615
1667255028085842400,0.116842529296875,5.704489231109619,0.8039883971214294,7.267002582550049
1667255028088371200,0.11937109375,5.828916072845459,0.6699903607368469,7.144968509674072
1667255028090900000,0.12189990234375,5.936593055725098,0.5670989751815796,7.056434154510498
1667255028093429000,0.124428955078125,6.056233882904053,0.5168496966362,6.999006271362305
1667255028095957800,0.126957763671875,6.1950178146362305,0.5144568681716919,6.98704195022583
1667255028098486800,0.12948681640625,6.26440954208374,0.5455635786056519,6.994220733642578
1667255028101015600,0.132015625,6.259624004364014,0.6149554252624512,7.027719974517822
1667255028103544600,0.134544677734375,6.2189459800720215,0.698704183101654,7.085147857666016
1667255028106073300,0.1370732421875,6.161518096923828,0.7824530005455017,7.149754047393799
1667255028108602400,0.139602294921875,6.089733600616455,0.8327022790908813,7.276573657989502
1667255028111131100,0.142131103515625,6.063412666320801,0.8374879360198975,7.417750358581543
1667255028113660000,0.144659912109375,6.058627128601074,0.7800601720809937,7.57806921005249
1667255028116189000,0.14718896484375,6.106483459472656,0.7082754969596863,7.688138961791992
1667255028118717700,0.1497177734375,6.221338748931885,0.698704183101654,7.6737823486328125
1667255028121246700,0.152246826171875,6.367300987243652,0.6699903607368469,7.520641803741455
1667255028123775500,0.154775390625,6.515655994415283,0.6364908218383789,7.441678524017334
1667255028126304500,0.157304443359375,6.628118515014648,0.6245267391204834,7.372286796569824
1667255028128833300,0.159833251953125,6.704689025878906,0.6269195079803467,7.259823799133301
1667255028131362300,0.1623623046875,6.750152587890625,0.6604190468788147,7.159325122833252
1667255028133891000,0.16489111328125,6.742974281311035,0.6939185857772827,7.137789726257324
1667255028136420000,0.167420166015625,6.678368091583252,0.7250252366065979,7.089933395385742
1667255028138948900,0.169948974609375,6.599404811859131,0.7848458290100098,7.0995049476623535
1667255028141433300,0.172433349609375,6.4701924324035645,0.8350951075553894,7.133004188537598
1667255028143912700,0.17491259765625,6.355337142944336,0.8614161610603333,7.159325122833252
1667255028146392000,0.17739208984375,6.25723123550415,0.882951557636261,7.190432071685791
1667255028148871200,0.17987109375,6.161518096923828,0.8973084688186646,7.226324558258057
1667255028151350500,0.1823505859375,6.041877269744873,0.9092726111412048,7.274180889129639
1667255028153830000,0.184829833984375,5.879165172576904,0.8925228714942932,7.331608772277832
1667255028156309200,0.187309326171875,5.699703693389893,0.8614161610603333,7.326822757720947
1667255028158788400,0.189788330078125,5.493920803070068,0.7992027401924133,7.3746795654296875
1667255028161267700,0.192267822265625,5.3216376304626465,0.7800601720809937,7.379465103149414
1667255028163747000,0.1947470703125,5.132604598999023,0.7561319470405579,7.381857872009277
1667255028166226400,0.197226318359375,4.9531426429748535,0.7393822073936462,7.3986077308654785
1667255028168705800,0.199705810546875,4.804787635803223,0.763310432434082,7.4225358963012695
1667255028171185000,0.202184814453125,4.668396949768066,0.8135597109794617,7.384250640869141
1667255028173664300,0.204664306640625,4.589433670043945,0.8303094506263733,7.36032247543335
1667255028176143600,0.2071435546875,4.575077056884766,0.8303094506263733,7.338787078857422
1667255028178623000,0.209623046875,4.644468784332275,0.8207381963729858,7.326822757720947
1667255028181102300,0.212102294921875,4.7712883949279785,0.8422735929489136,7.341179847717285
1667255028183581400,0.21458154296875,4.869394302368164,0.9116654396057129,7.336394309997559
1667255028186060800,0.217060791015625,4.852644443511963,1.0600204467773438,7.322037220001221
1667255028188540200,0.2195400390625,4.797609329223633,1.2346965074539185,7.324429988861084
1667255028191019500,0.22201953125,4.706682205200195,1.3806586265563965,7.365108013153076
1667255028193498600,0.22449853515625,4.572684288024902,1.5409778356552124,7.420143127441406
1667255028195978000,0.22697802734375,4.40757942199707,1.6534404754638672,7.530212879180908
1667255028198457300,0.229457275390625,4.199403762817383,1.7324036359786987,7.668996810913086
1667255028200936700,0.231936767578125,3.9864425659179688,1.7563318014144897,7.814958572387695
1667255028203415800,0.234415771484375,3.81655216217041,1.7371892929077148,7.934599876403809
1667255028205895200,0.236895263671875,3.730410575866699,1.679761528968811,8.049455642700195
1667255028208374500,0.23937451171875,3.7184464931488037,1.612762451171875,8.10688304901123
1667255028210854000,0.24185400390625,3.7902309894561768,1.526620864868164,8.140382766723633
1667255028213333000,0.2443330078125,3.9529430866241455,1.4476577043533325,8.166703224182129
1667255028215812400,0.246812255859375,4.225724697113037,1.3710874319076538,8.147561073303223
1667255028218291700,0.249291748046875,4.548755645751953,1.3160524368286133,8.104490280151367
1667255028220771000,0.25177099609375,4.883750915527344,1.2610175609588623,8.02791976928711
1667255028223250400,0.25425048828125,5.134997367858887,1.184447169303894,7.941778182983398
1667255028225729500,0.2567294921875,5.304887771606445,1.1413763761520386,7.867600917816162
1667255028228209000,0.259208984375,5.412564754486084,1.0911271572113037,7.843672752380371
1667255028230688300,0.261688232421875,5.501099109649658,1.0911271572113037,7.872386455535889
1667255028233167600,0.264167724609375,5.527420520782471,1.1150553226470947,7.922635555267334
1667255028235646700,0.266646728515625,5.5034918785095215,1.1341979503631592,7.984848976135254
1667255028238126000,0.2691259765625,5.422136306762695,1.1198409795761108,8.109275817871094
1667255028240605400,0.27160546875,5.333601474761963,1.098305583000183,8.226524353027344
1667255028243084800,0.274084716796875,5.304887771606445,1.0648061037063599,8.286344528198242
1667255028245564000,0.27656396484375,5.328815937042236,1.0097711086273193,8.34855842590332
1667255028248043300,0.279043212890625,5.405386447906494,0.914058268070221,8.38684368133545
1667255028250522600,0.281522705078125,5.551348686218262,0.8063812255859375,8.37966537475586
1667255028253002000,0.284001953125,5.709274768829346,0.6963114142417908,8.384450912475586
1667255028255481300,0.2864814453125,5.795416355133057,0.6005984544754028,8.389236450195312
1667255028257960400,0.28896044921875,5.812166213989258,0.5264210104942322,8.441878318786621
1667255028260439800,0.291439697265625,5.737988471984863,0.5144568681716919,8.489734649658203
1667255028262919200,0.293919189453125,5.587240695953369,0.5072783827781677,8.559126853942871
1667255028265398500,0.2963984375,5.347958564758301,0.5312066078186035,8.583054542541504
1667255028267877600,0.298877685546875,5.146961688995361,0.5647061467170715,8.590232849121094
1667255028270357000,0.30135693359375,4.977071285247803,0.5838487148284912,8.571090698242188
1667255028272836400,0.30383642578125,4.8574299812316895,0.607776939868927,8.535198211669922
1667255028275315700,0.306315673828125,4.838287353515625,0.6317051649093628,8.496912956237793
1667255028277795000,0.308795166015625,4.924428939819336,0.6556333899497986,8.489734649658203
1667255028280274200,0.311274169921875,5.06082010269165,0.7250252366065979,8.537590980529785
1667255028282753500,0.31375341796875,5.170889854431152,0.7968099117279053,8.602197647094727
1667255028285233000,0.31623291015625,5.168497085571289,0.8757730722427368,8.719446182250977
1667255028287712300,0.318712158203125,5.06082010269165,0.9595218896865845,8.877371788024902
1667255028290191400,0.32119140625,4.878965377807617,1.0360921621322632,9.044869422912598
1667255028292670700,0.323670654296875,4.651647090911865,1.1437692642211914,9.231510162353516
1667255028295150000,0.326150146484375,4.436293125152588,1.2610175609588623,9.430113792419434
1667255028297629400,0.32862939453125,4.273581027984619,1.3902299404144287,9.623932838439941
1667255028300108500,0.331108642578125,4.185046672821045,1.5337992906570435,9.779465675354004
1667255028302588000,0.333587890625,4.1970109939575195,1.648654818534851,9.891928672790527
1667255028305067300,0.3360673828125,4.235296249389648,1.672582983970642,9.944570541381836
1667255028307546600,0.338546630859375,4.2592244148254395,1.6271194219589233,9.930213928222656
1667255028310025700,0.341025634765625,4.252045631408691,1.5194423198699951,9.844072341918945
1667255028312505000,0.343505126953125,4.232903480529785,1.4117653369903564,9.628718376159668
1667255028314984400,0.345984375,4.232903480529785,1.2801600694656372,9.446864128112793
1667255028317463800,0.3484638671875,4.302295207977295,1.3040883541107178,9.322437286376953
1667255028319943200,0.350943115234375,4.48414945602417,1.4069796800613403,9.260223388671875
1667255028322422300,0.35342236328125,4.651647090911865,1.5409778356552124,9.257830619812012
1667255028324901600,0.355901611328125,4.711467742919922,1.6175481081008911,9.269794464111328
1667255028327381000,0.358381103515625,4.658825874328613,1.6366907358169556,9.317651748657227
1667255028329860400,0.3608603515625,4.551148891448975,1.588834285736084,9.34157943725586
1667255028332339700,0.363339599609375,4.426722049713135,1.4835500717163086,9.401400566101074
1667255028334818800,0.36581884765625,4.3310089111328125,1.3806586265563965,9.475577354431152
1667255028337298200,0.368298095703125,4.252045631408691,1.2993026971817017,9.509077072143555
1667255028339777500,0.370777587890625,4.18983268737793,1.2346965074539185,9.54496955871582
1667255028342257000,0.3732568359375,4.156332969665527,1.179661512374878,9.571290969848633
1667255028344736000,0.375736083984375,4.110869407653809,1.1509476900100708,9.619147300720215
1667255028347215400,0.37821533203125,4.108476638793945,1.1676974296569824,9.626325607299805
1667255028349694700,0.38069482421875,4.113262176513672,1.196411371231079,9.626325607299805
1667255028352174000,0.383174072265625,4.158725738525391,1.1892328262329102,9.571290969848633
1667255028354653200,0.385653076171875,4.182653903961182,1.1270195245742798,9.494720458984375
1667255028357132500,0.388132568359375,4.225724697113037,1.0671988725662231,9.389435768127441
1667255028359612000,0.39061181640625,4.2592244148254395,0.9906286001205444,9.286544799804688
1667255028362091300,0.39309130859375,4.264009952545166,0.9571290612220764,9.238688468933105
1667255028364570400,0.3955703125,4.2831525802612305,0.9499505758285522,9.22433090209961
1667255028367049700,0.3980498046875,4.316651821136475,0.9355936646461487,9.238688468933105
1667255028369529000,0.400529052734375,4.390829563140869,0.9427721500396729,9.274580955505371
1667255028372008400,0.403008544921875,4.505684852600098,0.9523434042930603,9.284152030944824
1667255028374487800,0.40548779296875,4.6372904777526855,0.9332008361816406,9.29611587524414
1667255028376967000,0.407966796875,4.778466701507568,0.914058268070221,9.28893756866455
1667255028379446300,0.4104462890625,4.910071849822998,0.8781659007072449,9.243474006652832
1667255028381925600,0.412925537109375,5.039284706115723,0.8590233325958252,9.181260108947754
1667255028384405000,0.415405029296875,5.127819061279297,0.8279166221618652,9.147761344909668
1667255028386884400,0.41788427734375,5.13739013671875,0.794417142868042,9.107083320617676
1667255028389363500,0.420363525390625,5.113461971282959,0.7680960893630981,9.052047729492188
1667255028391842800,0.4228427734375,5.0703911781311035,0.7441678643226624,9.011369705200195
1667255028394322200,0.425322265625,5.01296329498291,0.7513462901115417,8.96829891204834
1667255028396801500,0.427801513671875,4.938786029815674,0.7465606927871704,8.922835350036621
1667255028399280600,0.43028076171875,4.8813581466674805,0.7250252366065979,8.877371788024902
1667255028401760000,0.432760009765625,4.816751956939697,0.7154539823532104,8.827122688293457
1667255028404239400,0.4352392578125,4.761716842651367,0.727418065071106,8.757730484008789
1667255028406718700,0.43771875,4.656432628631592,0.7513462901115417,8.70508861541748
1667255028409197800,0.44019775390625,4.555934429168701,0.7776673436164856,8.666803359985352
1667255028411677200,0.44267724609375,4.4410786628723145,0.7872386574745178,8.635697364807129
1667255028414156500,0.445156494140625,4.304687976837158,0.7968099117279053,8.599804878234863
1667255028416636000,0.447635986328125,4.106083869934082,0.794417142868042,8.554341316223145
1667255028419115000,0.450114990234375,3.845266103744507,0.7537391185760498,8.520841598510742
1667255028421594400,0.452594482421875,3.5294134616851807,0.7034898400306702,8.499305725097656
1667255028424073700,0.45507373046875,3.2039895057678223,0.6963114142417908,8.492127418518066
1667255028426553000,0.457552978515625,2.878565549850464,0.6963114142417908,8.49452018737793
1667255028429032400,0.460032470703125,2.6009981632232666,0.729810893535614,8.544769287109375
1667255028431511600,0.462511474609375,2.400001049041748,0.8039883971214294,8.642875671386719
1667255028433991000,0.464990966796875,2.2779672145843506,0.916451096534729,8.786444664001465
1667255028436470300,0.46747021484375,2.242074728012085,1.0169496536254883,8.934800148010254
1667255028438949600,0.46994970703125,2.282752752304077,1.153340458869934,9.09272575378418
1667255028441429000,0.472428955078125,2.392822742462158,1.2681959867477417,9.260223388671875
1667255028443908000,0.474908203125,2.5196423530578613,1.3663017749786377,9.42772102355957
1667255028446387500,0.477387451171875,2.644068956375122,1.4715858697891235,9.580862045288086
1667255028448866800,0.47986669921875,2.778067111968994,1.526620864868164,9.710074424743652
1667255028451346200,0.48234619140625,2.9168508052825928,1.5625132322311401,9.822537422180176
1667255028453825300,0.4848251953125,3.0891339778900146,1.5696916580200195,9.906285285949707
1667255028456304600,0.4873046875,3.2829527854919434,1.588834285736084,9.9469633102417
1667255028458784000,0.489783935546875,3.4719855785369873,1.5984054803848267,9.985248565673828
1667255028461263400,0.492263427734375,3.6777684688568115,1.588834285736084,9.990034103393555
1667255028463742500,0.494742431640625,3.88594388961792,1.5840486288070679,9.961320877075195
1667255028466221800,0.497221923828125,4.091726779937744,1.5553346872329712,9.942177772521973
1667255028468701200,0.499701171875,4.261617183685303,1.5074782371520996,9.913464546203613
1667255028471180500,0.5021806640625,4.376472473144531,1.466800332069397,9.853643417358398
1667255028473660000,0.504659912109375,4.457828521728516,1.399801254272461,9.80817985534668
1667255028476139000,0.507138916015625,4.505684852600098,1.3471591472625732,9.77707290649414
1667255028478618400,0.509618408203125,4.527220249176025,1.2969099283218384,9.726823806762695
1667255028481097700,0.51209765625,4.5200419425964355,1.2394821643829346,9.681360244750977
1667255028483577000,0.5145771484375,4.5200419425964355,1.2035897970199585,9.652647018432617
1667255028486056200,0.51705615234375,4.515256404876709,1.196411371231079,9.609575271606445
1667255028488535600,0.51953564453125,4.486542224884033,1.2059825658798218,9.58325481414795
1667255028491015000,0.522014892578125,4.462614059448242,1.2011969089508057,9.573683738708496
1667255028493494300,0.524494384765625,4.436293125152588,1.196411371231079,9.57607650756836
1667255028495973600,0.5269736328125,4.453042984008789,1.1988041400909424,9.573683738708496
1667255028498452700,0.52945263671875,4.500899314880371,1.2035897970199585,9.54496955871582
1667255028500932000,0.53193212890625,4.565505504608154,1.1940184831619263,9.477970123291016
1667255028503411500,0.534411376953125,4.596612453460693,1.1629117727279663,9.408578872680664
1667255028505890800,0.536890869140625,4.6372904777526855,1.124626636505127,9.324830055236816
1667255028508370000,0.539369873046875,4.66361141204834,1.0719845294952393,9.243474006652832
1667255028510849300,0.541849365234375,4.687539577484131,1.057627558708191,9.138189315795898
1667255028513328600,0.54432861328125,4.668396949768066,1.0528420209884644,9.05444049835205
1667255028515808000,0.54680810546875,4.613361835479736,1.0336993932724,8.965906143188477
1667255028518287000,0.549287109375,4.563112735748291,1.0193424224853516,8.898907661437988
1667255028520766500,0.551766357421875,4.503292083740234,0.9906286001205444,8.798408508300781
1667255028523245800,0.554245849609375,4.450650215148926,0.9595218896865845,8.726624488830566
1667255028525725200,0.55672509765625,4.386044025421143,0.914058268070221,8.678768157958984
1667255028528204500,0.55920458984375,4.326223373413086,0.8733802437782288,8.645268440246582
1667255028530683600,0.56168359375,4.299902439117432,0.8255237936973572,8.585447311401367
1667255028533163000,0.5641630859375,4.309473514556885,0.8039883971214294,8.571090698242188
1667255028535642400,0.566642333984375,4.328616142272949,0.794417142868042,8.549555778503418
1667255028538121700,0.569121826171875,4.335794448852539,0.7920243144035339,8.520841598510742
1667255028540600800,0.571600830078125,4.340580463409424,0.8255237936973572,8.535198211669922
1667255028543080200,0.574080078125,4.338187217712402,0.8542376756668091,8.551948547363281
1667255028545559600,0.5765595703125,4.342973232269287,0.914058268070221,8.57348346710205
1667255028548039000,0.579038818359375,4.350151538848877,0.9978070259094238,8.659625053405762
1667255028550518300,0.581518310546875,4.364508628845215,1.0815558433532715,8.767302513122559
1667255028552997400,0.583997314453125,4.393222332000732,1.1892328262329102,8.901300430297852
1667255028555476700,0.586476806640625,4.383651256561279,1.3208380937576294,9.052047729492188
1667255028557956000,0.5889560546875,4.342973232269287,1.454836130142212,9.253045082092285
1667255028560435500,0.591435546875,4.287938117980957,1.5936198234558105,9.439684867858887
1667255028562914600,0.59391455078125,4.2592244148254395,1.7180466651916504,9.580862045288086
1667255028565394000,0.596393798828125,4.261617183685303,1.8161523342132568,9.738788604736328
1667255028567873300,0.598873291015625,4.242474555969238,1.8807586431503296,9.875179290771484
1667255028570352600,0.6013525390625,4.187439441680908,1.923829436302185,9.992427825927734
1667255028572831700,0.603831787109375,4.132404804229736,1.9334007501602173,10.100104331970215
1667255028575311000,0.60631103515625,4.082155227661133,1.9669002294540405,10.191031455993652
1667255028577790500,0.60879052734375,4.022335052490234,2.007578134536743,10.243673324584961
1667255028580269800,0.611269775390625,3.926621913909912,2.038684844970703,10.293923377990723
1667255028582749200,0.613749267578125,3.775874137878418,2.0506489276885986,10.348958015441895
1667255028585228300,0.616228271484375,3.5988051891326904,2.060220241546631,10.411170959472656
1667255028587707600,0.618707763671875,3.383451223373413,2.076970100402832,10.470992088317871
1667255028590187000,0.62118701171875,3.1657042503356934,2.091326951980591,10.497312545776367
1667255028592666400,0.623666259765625,2.9288148880004883,2.1104695796966553,10.51645565032959
1667255028595145500,0.6261455078125,2.706282377243042,2.1439690589904785,10.51645565032959
1667255028597624800,0.628624755859375,2.500499725341797,2.146361827850342,10.497312545776367
1667255028600104200,0.631104248046875,2.287538528442383,2.1535403728485107,10.470992088317871
1667255028602583600,0.63358349609375,2.0793628692626953,2.146361827850342,10.437492370605469
1667255028605062700,0.636062744140625,1.8831514120101929,2.124826431274414,10.372885704040527
1667255028607542000,0.6385419921875,1.7132610082626343,2.0745773315429688,10.296316146850586
1667255028610021400,0.641021484375,1.550549030303955,2.0410776138305664,10.224531173706055
1667255028612500700,0.643500732421875,1.3902299404144287,1.9932212829589844,10.145567893981934
1667255028614980000,0.64597998046875,1.2179467678070068,1.97407865524292,10.061819076538086
1667255028617459200,0.648459228515625,1.0959128141403198,1.9286150932312012,9.968499183654785
1667255028619938600,0.6509384765625,1.0265209674835205,1.8831514120101929,9.875179290771484
1667255028622418000,0.65341796875,1.0121639966964722,1.828116536140442,9.741181373596191
1667255028624897300,0.655897216796875,1.0145567655563354,1.7826528549194336,9.633503913879395
1667255028627376600,0.658376708984375,1.062413215637207,1.7156537771224976,9.504291534423828
1667255028629855700,0.660855712890625,1.1341979503631592,1.6390835046768188,9.351150512695312
1667255028632335000,0.663335205078125,1.25144624710083,1.5744773149490356,9.166903495788574
1667255028634814500,0.665814453125,1.34476637840271,1.4739787578582764,9.004191398620605
1667255028637293800,0.6682939453125,1.4021940231323242,1.404586911201477,8.831908226013184
1667255028639773000,0.67077294921875,1.459621787071228,1.3878371715545654,8.676374435424805
1667255028642252300,0.673252197265625,1.4883357286453247,1.337587833404541,8.499305725097656
1667255028644731600,0.675731689453125,1.5433706045150757,1.2849457263946533,8.360522270202637
1667255028647211000,0.6782109375,1.6223337650299072,1.2418749332427979,8.26241683959961
1667255028649690000,0.680690185546875,1.7228323221206665,1.2059825658798218,8.164310455322266
1667255028652169500,0.68316943359375,1.8400806188583374,1.1892328262329102,8.10688304901123
1667255028654648800,0.68564892578125,1.9286150932312012,1.2059825658798218,8.085348129272461
1667255028657128200,0.688128173828125,1.9860427379608154,1.2370892763137817,8.078168869018555
1667255028659607600,0.690607666015625,1.9956140518188477,1.2993026971817017,8.085348129272461
1667255028662086700,0.693086669921875,1.9621145725250244,1.3519448041915894,8.142775535583496
1667255028664566000,0.69556591796875,1.8711873292922974,1.4141582250595093,8.212167739868164
1667255028667045400,0.69804541015625,1.6941183805465698,1.4644074440002441,8.288737297058105
1667255028669524700,0.700524658203125,1.4500504732131958,1.5170495510101318,8.374878883361816
1667255028672004000,0.703004150390625,1.1461620330810547,1.5553346872329712,8.444271087646484
1667255028674483200,0.705483154296875,0.7920243144035339,1.5792629718780518,8.489734649658203
1667255028676962600,0.707962646484375,0.4211367964744568,1.6079767942428589,8.523234367370605
1667255028679442000,0.71044189453125,0.07657032459974289,1.648654818534851,8.566305160522461
1667255028681921300,0.71292138671875,-0.2153540402650833,1.7012969255447388,8.583054542541504
1667255028684400400,0.715400390625,-0.43549370765686035,1.7515461444854736,8.63330364227295
1667255028686879700,0.717879638671875,-0.5862415432929993,1.7682958841323853,8.69791030883789
1667255028689359000,0.720359130859375,-0.672383189201355,1.7994025945663452,8.776873588562012
1667255028691838500,0.72283837890625,-0.6867401003837585,1.8161523342132568,8.872586250305176
1667255028694317600,0.725317626953125,-0.6532405614852905,1.8137595653533936,8.956335067749023
1667255028696797000,0.727796875,-0.5479564070701599,1.7802600860595703,9.07119083404541
1667255028699276300,0.7302763671875,-0.3900300860404968,1.7730815410614014,9.154939651489258
1667255028701755600,0.732755615234375,-0.16271193325519562,1.7922241687774658,9.212367057800293
1667255028704235000,0.735235107421875,0.14835500717163086,1.8161523342132568,9.257830619812012
1667255028706714000,0.737714111328125,0.5144568681716919,1.8544375896453857,9.31047248840332
1667255028709193500,0.740193359375,0.9499505758285522,1.8855443000793457,9.329615592956543
1667255028711672800,0.7426728515625,1.404586911201477,1.9142581224441528,9.351150512695312
1667255028714152200,0.745152099609375,1.8640087842941284,1.9405791759490967,9.387042999267578
1667255028716631600,0.747631591796875,2.2947168350219727,1.9597218036651611,9.42772102355957
1667255028719110700,0.750110595703125,2.6727828979492188,1.9621145725250244,9.449256896972656
1667255028721590000,0.752590087890625,3.0029923915863037,1.9621145725250244,9.473184585571289
1667255028724069400,0.7550693359375,3.2925238609313965,1.9381862878799438,9.501898765563965
1667255028726548700,0.757548828125,3.5533416271209717,1.9310078620910645,9.516255378723145
1667255028729027800,0.76002783203125,3.775874137878418,1.8903298377990723,9.54496955871582
1667255028731507200,0.762507080078125,3.955335855484009,1.8352949619293213,9.554540634155273
1667255028733986600,0.764986572265625,4.101297855377197,1.7994025945663452,9.573683738708496
1667255028736466000,0.7674658203125,4.216153621673584,1.7826528549194336,9.590433120727539
1667255028738945000,0.769945068359375,4.287938117980957,1.7826528549194336,9.623932838439941
1667255028741424400,0.77242431640625,4.340580463409424,1.7730815410614014,9.643074989318848
1667255028743903700,0.77490380859375,4.364508628845215,1.7587246894836426,9.681360244750977
1667255028746383000,0.777383056640625,4.366901397705078,1.7491533756256104,9.695717811584473
1667255028748862500,0.779862548828125,4.335794448852539,1.7611174583435059,9.719645500183105
1667255028751341600,0.782341552734375,4.271188259124756,1.7539390325546265,9.722038269042969
1667255028753821000,0.784821044921875,4.185046672821045,1.7324036359786987,9.748359680175781
1667255028756300300,0.78730029296875,4.048655986785889,1.7060825824737549,9.731609344482422
1667255028758779600,0.789779541015625,3.8739798069000244,1.6821542978286743,9.698110580444336
1667255028761258800,0.7922587890625,3.6777684688568115,1.6582261323928833,9.671789169311523
1667255028763738000,0.794738037109375,3.4576287269592285,1.6031911373138428,9.597611427307129
1667255028766217500,0.797217529296875,3.2231321334838867,1.5194423198699951,9.523433685302734
1667255028768696800,0.79969677734375,2.9766714572906494,1.3830515146255493,9.410971641540527
1667255028771176000,0.802176025390625,2.7038896083831787,1.28255295753479,9.291330337524414
1667255028773655300,0.8046552734375,2.4406790733337402,1.2035897970199585,9.186046600341797
1667255028776134700,0.807134765625,2.1822543144226074,1.1461620330810547,9.080761909484863
1667255028778614000,0.809614013671875,1.9716858863830566,1.1150553226470947,8.994620323181152
1667255028781093400,0.81209326171875,1.8065811395645142,1.1126625537872314,8.93240737915039
1667255028783572500,0.814572509765625,1.7228323221206665,1.1030912399291992,8.870193481445312
1667255028786051800,0.8170517578125,1.7180466651916504,1.1126625537872314,8.805587768554688
1667255028788531200,0.81953125,1.7539390325546265,1.0863415002822876,8.757730484008789
1667255028791010600,0.822010498046875,1.8592232465744019,1.0959128141403198,8.740981101989746
1667255028793490000,0.824489990234375,1.9908283948898315,1.124626636505127,8.726624488830566
1667255028795969000,0.826968994140625,2.1535403728485107,1.1461620330810547,8.726624488830566
1667255028798448400,0.829448486328125,2.280359983444214,1.179661512374878,8.74337387084961
1667255028800927700,0.831927734375,2.421536445617676,1.2131611108779907,8.762516975402832
1667255028803407000,0.834406982421875,2.5746772289276123,1.246660590171814,8.764909744262695
1667255028805886200,0.83688623046875,2.737389087677002,1.3208380937576294,8.776873588562012
1667255028808365600,0.839365478515625,2.9048867225646973,1.397408366203308,8.774480819702148
1667255028810845000,0.841844970703125,3.0484559535980225,1.4452649354934692,8.798408508300781
1667255028813324300,0.84432421875,3.1274192333221436,1.4620146751403809,8.891729354858398
1667255028815803400,0.846803466796875,3.1585259437561035,1.4763715267181396,8.96829891204834
1667255028818282800,0.84928271484375,3.1824541091918945,1.4931213855743408,9.05444049835205
1667255028820762000,0.85176220703125,3.208775281906128,1.5433706045150757,9.09272575378418
1667255028823241500,0.854241455078125,3.2350962162017822,1.5792629718780518,9.095118522644043
1667255028825720800,0.856720947265625,3.2279176712036133,1.6271194219589233,9.087940216064453
1667255028828200000,0.859199951171875,3.2039895057678223,1.6462619304656982,9.066405296325684
1667255028830679300,0.86167919921875,3.160918712615967,1.6654045581817627,9.075976371765137
1667255028833158700,0.86415869140625,3.077169895172119,1.6773686408996582,9.075976371765137
1667255028835638000,0.866637939453125,2.967100143432617,1.6701902151107788,9.068798065185547
1667255028838117400,0.869117431640625,2.792423963546753,1.6558332443237305,9.06401252746582
1667255028840596500,0.871596435546875,2.5746772289276123,1.6223337650299072,9.07119083404541
1667255028843075800,0.874075927734375,2.3808584213256836,1.6103696823120117,9.107083320617676
1667255028845555200,0.87655517578125,2.225325107574463,1.612762451171875,9.159725189208984
1667255028848034600,0.87903466796875,2.1200408935546875,1.6390835046768188,9.198010444641113
1667255028850513700,0.881513671875,2.060220241546631,1.6821542978286743,9.257830619812012
1667255028852993000,0.883992919921875,2.0338993072509766,1.730010747909546,9.322437286376953
1667255028855472400,0.886472412109375,2.069791555404663,1.7587246894836426,9.351150512695312
1667255028857951700,0.88895166015625,2.1367905139923096,1.801795482635498,9.382257461547852
1667255028860430800,0.891430908203125,2.2468605041503906,1.828116536140442,9.396614074707031
1667255028862910200,0.89391015625,2.3497519493103027,1.8400806188583374,9.403793334960938
1667255028865389600,0.8963896484375,2.493321180343628,1.8161523342132568,9.418149948120117
1667255028867869000,0.898868896484375,2.6273193359375,1.8113667964935303,9.410971641540527
1667255028870348300,0.901348388671875,2.746960401535034,1.8041882514953613,9.396614074707031
1667255028872827400,0.903827392578125,2.9288148880004883,1.789831280708313,9.379864692687988
1667255028875306800,0.906306640625,3.1345977783203125,1.7922241687774658,9.379864692687988
1667255028877786000,0.9087861328125,3.321237802505493,1.7754744291305542,9.399007797241211
1667255028880265500,0.911265380859375,3.486342668533325,1.7563318014144897,9.396614074707031
1667255028882744800,0.913744873046875,3.610769271850586,1.7132610082626343,9.382257461547852
1667255028885224000,0.916223876953125,3.7016966342926025,1.6630117893218994,9.343972206115723
1667255028887703300,0.918703369140625,3.7639100551605225,1.6534404754638672,9.281759262084961
1667255028890182700,0.9211826171875,3.830909013748169,1.6247265338897705,9.20997428894043
1667255028892662000,0.923662109375,3.8763725757598877,1.5984054803848267,9.159725189208984
1667255028895141000,0.92614111328125,3.8835511207580566,1.5936198234558105,9.128618240356445
1667255028897620500,0.928620361328125,3.8596229553222656,1.5864413976669312,9.08554744720459
1667255028900099800,0.931099853515625,3.830909013748169,1.6031911373138428,9.075976371765137
1667255028902579200,0.9335791015625,3.7710886001586914,1.6031911373138428,9.047262191772461
1667255028905058300,0.936058349609375,3.6634113788604736,1.5672988891601562,9.037691116333008
1667255028907537700,0.93853759765625,3.5126636028289795,1.5337992906570435,9.047262191772461
1667255028910017000,0.94101708984375,3.328416347503662,1.526620864868164,9.028120040893555
1667255028912496400,0.943496337890625,3.160918712615967,1.490728497505188,9.023334503173828
1667255028914975700,0.945975830078125,2.9766714572906494,1.4691931009292603,8.999405860900879
1667255028917454800,0.948454833984375,2.8211379051208496,1.435693621635437,8.97787094116211
1667255028919934200,0.950934326171875,2.7014968395233154,1.3926228284835815,8.941978454589844
1667255028922413600,0.95341357421875,2.59621262550354,1.3399807214736938,8.910871505737305
1667255028924893000,0.955892822265625,2.517249345779419,1.3567304611206055,8.886942863464355
1667255028927372000,0.9583720703125,2.4670002460479736,1.3471591472625732,8.886942863464355
1667255028929851400,0.960851318359375,2.438286304473877,1.3902299404144287,8.903693199157715
1667255028932330800,0.963330810546875,2.4263222217559814,1.4476577043533325,8.922835350036621
1667255028934810000,0.96581005859375,2.4358935356140137,1.4979069232940674,8.975478172302246
1667255028937289500,0.96828955078125,2.4670002460479736,1.5433706045150757,9.044869422912598
1667255028939768600,0.9707685546875,2.50289249420166,1.5720844268798828,9.114261627197266
1667255028942248000,0.973248046875,2.557927370071411,1.5864413976669312,9.183652877807617
1667255028944727300,0.975727294921875,2.589034080505371,1.612762451171875,9.236295700073242
1667255028947206700,0.97820654296875,2.63449764251709,1.6319050788879395,9.291330337524414
1667255028949685800,0.980685791015625,2.6967110633850098,1.6582261323928833,9.315258979797363
1667255028952165000,0.9831650390625,2.775674343109131,1.679761528968811,9.298508644104004
1667255028954644500,0.98564453125,2.854637384414673,1.7204394340515137,9.305686950683594
1667255028957123800,0.988123779296875,2.950350284576416,1.7204394340515137,9.30329418182373
1667255028959603200,0.990603271484375,3.036491870880127,1.734796404838562,9.293723106384277
1667255028962082300,0.993082275390625,3.1106693744659424,1.7587246894836426,9.238688468933105
1667255028964561700,0.995561767578125,3.1896326541900635,1.7635103464126587,9.17886734008789
1667255028967041000,0.998041015625,3.2374889850616455,1.765903115272522,9.138189315795898
1667255028969520400,1.000520263671875,3.2374889850616455,1.7395820617675781,9.138189315795898
1667255028971999500,1.00299951171875,3.1896326541900635,1.7180466651916504,9.145368576049805
1667255028974478800,1.005478759765625,3.129812002182007,1.6869399547576904,9.145368576049805
1667255028976958200,1.007958251953125,3.0795626640319824,1.6271194219589233,9.135796546936035
1667255028979437600,1.0104375,3.0245277881622314,1.5840486288070679,9.116654396057129
1667255028981916700,1.012916748046875,2.9359934329986572,1.5696916580200195,9.119047164916992
1667255028984396000,1.01539599609375,2.8522446155548096,1.581655740737915,9.128618240356445
1667255028986875400,1.01787548828125,2.7589244842529297,1.5960127115249634,9.135796546936035
1667255028989354800,1.020354736328125,2.6464617252349854,1.6342978477478027,9.145368576049805
1667255028991834000,1.022834228515625,2.531606435775757,1.6582261323928833,9.154939651489258
1667255028994313500,1.0253134765625,2.438286304473877,1.6917256116867065,9.159725189208984
1667255028996792600,1.02779248046875,2.3497519493103027,1.7180466651916504,9.193224906921387
1667255028999272000,1.03027197265625,2.2779672145843506,1.7180466651916504,9.236295700073242
1667255029001751300,1.032751220703125,2.242074728012085,1.7515461444854736,9.274580955505371
1667255029004230700,1.035230712890625,2.2229323387145996,1.794616937637329,9.353543281555176
1667255029006709800,1.037709716796875,2.2229323387145996,1.8065811395645142,9.418149948120117
1667255029009189000,1.040189208984375,2.2636101245880127,1.8137595653533936,9.485149383544922
1667255029011668500,1.04266845703125,2.3234307765960693,1.8424733877182007,9.523433685302734
1667255029014147800,1.04514794921875,2.400001049041748,1.8664016723632812,9.559326171875
1667255029016627000,1.047626953125,2.4765713214874268,1.9070796966552734,9.611968994140625
1667255029019106300,1.050106201171875,2.5746772289276123,1.9357935190200806,9.638289451599121
1667255029021585700,1.052585693359375,2.7014968395233154,1.9764715433120728,9.678967475891113
1667255029024065000,1.05506494140625,2.8211379051208496,1.9836499691009521,9.702896118164062
1667255029026544400,1.05754443359375,2.888136863708496,1.9692929983139038,9.748359680175781
1667255029029023500,1.0600234375,2.919243574142456,1.9453648328781128,9.789037704467773
1667255029031502800,1.0625029296875,2.9240293502807617,1.9166508913040161,9.824930191040039
1667255029033982200,1.064982177734375,2.950350284576416,1.9405791759490967,9.824930191040039
1667255029036461600,1.067461669921875,2.9766714572906494,1.9525432586669922,9.810572624206543
1667255029038941000,1.06994091796875,3.0269205570220947,1.9597218036651611,9.760323524475098
1667255029041420000,1.072419921875,3.081955671310425,1.94297194480896,9.710074424743652
1667255029043899400,1.0748994140625,3.091526746749878,1.892722725868225,9.652647018432617
1667255029046378800,1.077378662109375,3.0891339778900146,1.8233308792114258,9.623932838439941
1667255029048858000,1.079858154296875,3.0580272674560547,1.7515461444854736,9.597611427307129
1667255029051337200,1.082337158203125,3.005385160446167,1.6941183805465698,9.561718940734863
1667255029053816600,1.084816650390625,2.9527430534362793,1.6366907358169556,9.516255378723145
1667255029056296000,1.0872958984375,2.902493953704834,1.612762451171875,9.45882797241211
1667255029058775300,1.089775390625,2.840280532836914,1.6175481081008911,9.403793334960938
1667255029061254400,1.09225439453125,2.770888566970825,1.6031911373138428,9.382257461547852
1667255029063733800,1.094733642578125,2.7086751461029053,1.5984054803848267,9.343972206115723
1667255029066213000,1.097213134765625,2.63449764251709,1.6103696823120117,9.312865257263184
1667255029068692500,1.0996923828125,2.5674986839294434,1.6151553392410278,9.291330337524414
1667255029071171800,1.102171875,2.5076780319213867,1.6295121908187866,9.267401695251465
1667255029073651000,1.10465087890625,2.493321180343628,1.6271194219589233,9.236295700073242
1667255029076130300,1.10713037109375,2.4837498664855957,1.6510475873947144,9.22433090209961
1667255029078609700,1.109609619140625,2.486142635345459,1.6654045581817627,9.231510162353516
1667255029081089000,1.112089111328125,2.4837498664855957,1.6893328428268433,9.253045082092285
1667255029083568000,1.114568115234375,2.4909284114837646,1.7084753513336182,9.267401695251465
1667255029086047500,1.117047607421875,2.531606435775757,1.7467604875564575,9.257830619812012
1667255029088526800,1.11952685546875,2.5842485427856445,1.7754744291305542,9.243474006652832
1667255029091006200,1.122006103515625,2.6273193359375,1.797009825706482,9.221938133239746
1667255029093485600,1.124485595703125,2.675175666809082,1.8233308792114258,9.200403213500977
1667255029095964700,1.126964599609375,2.715853691101074,1.8113667964935303,9.1716890335083
1667255029098444000,1.129444091796875,2.723032236099243,1.8041882514953613,9.174081802368164
1667255029100923400,1.13192333984375,2.699103832244873,1.7515461444854736,9.159725189208984
1667255029103402800,1.13440283203125,2.6225335597991943,1.6917256116867065,9.154939651489258
1667255029105882000,1.136882080078125,2.5363919734954834,1.6462619304656982,9.116654396057129
1667255029108361200,1.139361328125,2.4574289321899414,1.6366907358169556,9.10229778289795
1667255029110840600,1.141840576171875,2.400001049041748,1.6295121908187866,9.06401252746582
1667255029113320000,1.14431982421875,2.376072883605957,1.6366907358169556,9.068798065185547
1667255029115799300,1.14679931640625,2.321038007736206,1.6366907358169556,9.042476654052734
1667255029118278400,1.1492783203125,2.280359983444214,1.6319050788879395,9.052047729492188
1667255029120757800,1.1517578125,2.256431818008423,1.6103696823120117,9.09272575378418
1667255029123237000,1.154237060546875,2.2468605041503906,1.6151553392410278,9.135796546936035
1667255029125716500,1.156716552734375,2.2444677352905273,1.6223337650299072,9.174081802368164
1667255029128195600,1.159195556640625,2.2683959007263184,1.6582261323928833,9.219545364379883
1667255029130675000,1.161675048828125,2.311466693878174,1.6893328428268433,9.250652313232422
1667255029133154300,1.164154296875,2.3808584213256836,1.7060825824737549,9.30329418182373
1667255029135633700,1.166633544921875,2.4646072387695312,1.7180466651916504,9.360722541809082
1667255029138113000,1.169113037109375,2.5674986839294434,1.730010747909546,9.410971641540527
1667255029140592000,1.171592041015625,2.65842604637146,1.7228323221206665,9.461220741271973
1667255029143071500,1.174071533203125,2.7637102603912354,1.7156537771224976,9.509077072143555
1667255029145550800,1.17655078125,2.8833513259887695,1.7324036359786987,9.518648147583008
1667255029148030200,1.1790302734375,2.998206853866577,1.7539390325546265,9.523433685302734
1667255029150509600,1.181509521484375,3.122633457183838,1.7611174583435059,9.511469841003418
1667255029152988700,1.18398876953125,3.2303106784820557,1.7635103464126587,9.518648147583008
1667255029155468000,1.186468017578125,3.3403804302215576,1.7826528549194336,9.542576789855957
1667255029157947400,1.188947509765625,3.4408788681030273,1.7778671979904175,9.57607650756836
1667255029160426800,1.1914267578125,3.5270206928253174,1.7515461444854736,9.585647583007812
1667255029162905900,1.19390576171875,3.596412420272827,1.7419748306274414,9.590433120727539
1667255029165385200,1.19638525390625,3.6323046684265137,1.730010747909546,9.564111709594727
1667255029167864600,1.198864501953125,3.6155550479888916,1.703689694404602,9.556933403015137
1667255029170344000,1.201343994140625,3.5605201721191406,1.6845471858978271,9.54496955871582
1667255029172823300,1.2038232421875,3.5030922889709473,1.679761528968811,9.53779125213623
1667255029175302400,1.206302490234375,3.4265220165252686,1.679761528968811,9.494720458984375
1667255029177781800,1.20878173828125,3.34995174407959,1.6845471858978271,9.446864128112793
1667255029180261000,1.21126123046875,3.321237802505493,1.6701902151107788,9.396614074707031
1667255029182740500,1.213740478515625,3.328416347503662,1.6534404754638672,9.336793899536133
1667255029185219600,1.216219482421875,3.326023578643799,1.6462619304656982,9.30329418182373
1667255029187699000,1.218698974609375,3.3020951747894287,1.6175481081008911,9.300901412963867
1667255029190178300,1.22117822265625,3.280559778213501,1.6031911373138428,9.293723106384277
1667255029192657700,1.22365771484375,3.2518460750579834,1.6103696823120117,9.253045082092285
1667255029195137000,1.226136962890625,3.2159535884857178,1.5912270545959473,9.229117393493652
1667255029197616000,1.2286162109375,3.1920254230499268,1.6079767942428589,9.212367057800293
1667255029200095500,1.231095458984375,3.1800613403320312,1.6534404754638672,9.169296264648438
1667255029202574800,1.233574951171875,3.1728827953338623,1.6869399547576904,9.169296264648438
1667255029205054200,1.23605419921875,3.1728827953338623,1.7060825824737549,9.152546882629395
1667255029207533300,1.238533203125,3.170490026473999,1.7252250909805298,9.145368576049805
1667255029210012700,1.2410126953125,3.1513473987579346,1.7204394340515137,9.166903495788574
1667255029212492000,1.243491943359375,3.129812002182007,1.7180466651916504,9.164510726928711
1667255029214971400,1.245971435546875,3.13220477104187,1.7276179790496826,9.159725189208984
1667255029217450800,1.24845068359375,3.1489546298980713,1.7563318014144897,9.131011009216309
1667255029219929900,1.250929931640625,3.1441688537597656,1.7802600860595703,9.095118522644043
1667255029222409200,1.2534091796875,3.1417760848999023,1.794616937637329,9.044869422912598
1667255029224888600,1.255888671875,3.074777126312256,1.7754744291305542,8.999405860900879
1667255029227368000,1.258367919921875,3.0317063331604004,1.7682958841323853,8.97787094116211
1667255029229847000,1.260846923828125,2.9838497638702393,1.7611174583435059,8.97787094116211
1667255029232326400,1.263326416015625,2.919243574142456,1.7419748306274414,8.956335067749023
1667255029234805800,1.2658056640625,2.830709218978882,1.7084753513336182,8.915657043457031
1667255029237285000,1.26828515625,2.7637102603912354,1.6917256116867065,8.855836868286133
1667255029239764500,1.270764404296875,2.7038896083831787,1.6701902151107788,8.817551612854004
1667255029242243600,1.27324365234375,2.6321048736572266,1.6271194219589233,8.781659126281738
1667255029244723000,1.275722900390625,2.5387847423553467,1.581655740737915,8.733802795410156
1667255029247202300,1.278202392578125,2.4502503871917725,1.557727575302124,8.724231719970703
1667255029249681700,1.280681640625,2.390429735183716,1.526620864868164,8.6907320022583
1667255029252161000,1.2831611328125,2.3569302558898926,1.490728497505188,8.662017822265625
1667255029254640000,1.28564013671875,2.3497519493103027,1.5146567821502686,8.63330364227295
1667255029257119500,1.288119384765625,2.342573404312134,1.5170495510101318,8.63330364227295
1667255029259598800,1.290598876953125,2.3617160320281982,1.5314065217971802,8.647661209106445
1667255029262078200,1.293078125,2.4047868251800537,1.5553346872329712,8.669196128845215
1667255029264557300,1.295557373046875,2.469393014907837,1.5840486288070679,8.719446182250977
1667255029267036700,1.29803662109375,2.541177749633789,1.576870083808899,8.776873588562012
1667255029269516000,1.30051611328125,2.6321048736572266,1.5840486288070679,8.817551612854004
1667255029271995400,1.302995361328125,2.7278177738189697,1.6079767942428589,8.839086532592773
1667255029274474800,1.305474853515625,2.830709218978882,1.6295121908187866,8.858229637145996
1667255029276953900,1.307953857421875,2.9312076568603516,1.6510475873947144,8.874979019165039
1667255029279433200,1.31043310546875,3.0101709365844727,1.6510475873947144,8.889336585998535
1667255029281912600,1.31291259765625,3.0963125228881836,1.6606189012527466,8.925228118896484
1667255029284392000,1.315391845703125,3.184846878051758,1.674975872039795,8.96829891204834
1667255029286871000,1.31787109375,3.2709884643554688,1.6965112686157227,9.006584167480469
1667255029289350400,1.320350341796875,3.3714871406555176,1.698904037475586,9.083154678344727
1667255029291829800,1.322829833984375,3.483949661254883,1.710868239402771,9.133403778076172
1667255029294309000,1.32530908203125,3.562912940979004,1.710868239402771,9.157332420349121
1667255029296788500,1.32778857421875,3.617947816848755,1.7228323221206665,9.198010444641113
1667255029299267600,1.330267578125,3.6634113788604736,1.7443677186965942,9.241081237792969
1667255029301747000,1.332746826171875,3.6705899238586426,1.7419748306274414,9.281759262084961
1667255029304226300,1.335226318359375,3.6705899238586426,1.7491533756256104,9.32722282409668
1667255029306705700,1.33770556640625,3.649054527282715,1.7635103464126587,9.358329772949219
1667255029309184800,1.340184814453125,3.594019651412964,1.7635103464126587,9.377471923828125
1667255029311664000,1.3426640625,3.5365917682647705,1.7395820617675781,9.399007797241211
1667255029314143500,1.3451435546875,3.4791641235351562,1.7132610082626343,9.396614074707031
1667255029316622800,1.347622802734375,3.3930225372314453,1.703689694404602,9.408578872680664
1667255029319102200,1.350102294921875,3.3068809509277344,1.6917256116867065,9.401400566101074
1667255029321581300,1.352581298828125,3.239881753921509,1.6869399547576904,9.384650230407715
1667255029324060700,1.355060791015625,3.1585259437561035,1.7060825824737549,9.360722541809082
1667255029326540000,1.3575400390625,3.081955671310425,1.7276179790496826,9.355937004089355
1667255029329019400,1.360019287109375,3.0077781677246094,1.7515461444854736,9.33440113067627
1667255029331498500,1.36249853515625,2.909672260284424,1.7682958841323853,9.32722282409668
1667255029333977900,1.364977783203125,2.8139593601226807,1.797009825706482,9.336793899536133
1667255029336457200,1.367457275390625,2.7278177738189697,1.7635103464126587,9.339186668395996
1667255029338936600,1.3699365234375,2.6727828979492188,1.730010747909546,9.336793899536133
1667255029341416000,1.372416015625,2.644068956375122,1.6773686408996582,9.332008361816406
1667255029343895000,1.37489501953125,2.675175666809082,1.6462619304656982,9.274580955505371
1667255029346374400,1.37737451171875,2.737389087677002,1.6342978477478027,9.21715259552002
1667255029348853800,1.379853759765625,2.830709218978882,1.612762451171875,9.154939651489258
1667255029351333000,1.3823330078125,2.9312076568603516,1.6079767942428589,9.116654396057129
1667255029353812500,1.3848125,3.0340991020202637,1.6151553392410278,9.09272575378418
1667255029356291600,1.38729150390625,3.13220477104187,1.6319050788879395,9.075976371765137
1667255029358771000,1.38977099609375,3.208775281906128,1.6366907358169556,9.066405296325684
1667255029361250300,1.392250244140625,3.2374889850616455,1.6366907358169556,9.061619758605957
1667255029363729700,1.394729736328125,3.263810157775879,1.6366907358169556,9.035298347473145
1667255029366208800,1.397208740234375,3.25663161277771,1.6103696823120117,9.035298347473145
1667255029368688000,1.399688232421875,3.218346357345581,1.6007983684539795,9.008976936340332
1667255029371167500,1.40216748046875,3.1489546298980713,1.6031911373138428,8.989834785461426
1667255029373646800,1.404646728515625,3.050848960876465,1.5864413976669312,8.949156761169434
1667255029376126200,1.407126220703125,2.9288148880004883,1.552941918373108,8.910871505737305
1667255029378605300,1.409605224609375,2.809173822402954,1.545763373374939,8.879764556884766
1667255029381084700,1.412084716796875,2.713460922241211,1.5242279767990112,8.851051330566406
1667255029383564000,1.41456396484375,2.6297121047973633,1.5242279767990112,8.85344409942627
1667255029386043400,1.41704345703125,2.56510591506958,1.5026925802230835,8.858229637145996
1667255029388522800,1.419522705078125,2.4909284114837646,1.4859428405761719,8.86780071258545
1667255029391001900,1.422001953125,2.4263222217559814,1.4787644147872925,8.913264274597168
1667255029393481200,1.424481201171875,2.3880369663238525,1.5122638940811157,8.96829891204834
1667255029395960600,1.426960693359375,2.390429735183716,1.5314065217971802,9.016156196594238
1667255029398440000,1.42943994140625,2.431107759475708,1.5720844268798828,9.068798065185547
1667255029400919000,1.4319189453125,2.469393014907837,1.6247265338897705,9.119047164916992
1667255029403398400,1.4343984375,2.5076780319213867,1.6606189012527466,9.164510726928711
1667255029405877800,1.436877685546875,2.5603201389312744,1.6845471858978271,9.207581520080566
1667255029408357000,1.439357177734375,2.6368906497955322,1.698904037475586,9.236295700073242
1667255029410836500,1.44183642578125,2.7349963188171387,1.7084753513336182,9.272188186645508
1667255029413315600,1.444315673828125,2.864208698272705,1.730010747909546,9.305686950683594
1667255029415795000,1.446794921875,2.9838497638702393,1.7180466651916504,9.343972206115723
1667255029418274300,1.4492744140625,3.1106693744659424,1.7060825824737549,9.353543281555176
1667255029420753700,1.451753662109375,3.1896326541900635,1.6965112686157227,9.353543281555176
1667255029423232800,1.454232666015625,3.2614171504974365,1.6893328428268433,9.365508079528809
1667255029425712000,1.456712158203125,3.3164522647857666,1.6773686408996582,9.375079154968262
1667255029428191500,1.45919140625,3.345165967941284,1.698904037475586,9.41336441040039
1667255029430670800,1.4616708984375,3.3379876613616943,1.7012969255447388,9.454042434692383
1667255029433150200,1.464150146484375,3.314059257507324,1.7060825824737549,9.499505996704102
1667255029435629300,1.46662939453125,3.3164522647857666,1.7276179790496826,9.54496955871582
1667255029438108700,1.469108642578125,3.304488182067871,1.7682958841323853,9.561718940734863
1667255029440588000,1.471588134765625,3.2757742404937744,1.7802600860595703,9.56650447845459
1667255029443067400,1.4740673828125,3.249453067779541,1.789831280708313,9.588040351867676
1667255029445546800,1.476546630859375,3.2207393646240234,1.7850457429885864,9.614361763000488
1667255029448025900,1.47902587890625,3.187239646911621,1.801795482635498,9.616754531860352
1667255029450505200,1.481505126953125,3.1441688537597656,1.8041882514953613,9.611968994140625
1667255029452984600,1.483984619140625,3.084348440170288,1.7778671979904175,9.600004196166992
1667255029455464000,1.4864638671875,3.036491870880127,1.7491533756256104,9.595218658447266
1667255029457943000,1.488943115234375,2.9694929122924805,1.7132610082626343,9.58325481414795
1667255029460422400,1.49142236328125,2.9048867225646973,1.6893328428268433,9.58325481414795
1667255029462901800,1.49390185546875,2.847458839416504,1.679761528968811,9.571290969848633
1667255029465381000,1.496381103515625,2.7900311946868896,1.6654045581817627,9.55214786529541
1667255029467860200,1.498860107421875,2.7349963188171387,1.6869399547576904,9.528220176696777
1667255029470339600,1.501339599609375,2.6967110633850098,1.6845471858978271,9.521040916442871
1667255029472819000,1.50381884765625,2.6703901290893555,1.6606189012527466,9.501898765563965
1667255029475298300,1.50629833984375,2.641676187515259,1.6654045581817627,9.4660062789917
1667255029477777700,1.508777587890625,2.5746772289276123,1.648654818534851,9.45882797241211
1667255029480257000,1.511257080078125,2.5770699977874756,1.6342978477478027,9.480362892150879
1667255029482736000,1.513736083984375,2.6368906497955322,1.6247265338897705,9.461220741271973
1667255029485215500,1.516215576171875,2.667997360229492,1.5720844268798828,9.42054271697998
1667255029487694800,1.51869482421875,2.6847469806671143,1.5337992906570435,9.353543281555176
1667255029490174200,1.52117431640625,2.7182464599609375,1.4931213855743408,9.284152030944824
1667255029492653300,1.5236533203125,2.7565317153930664,1.4739787578582764,9.233902931213379
1667255029495132700,1.526132568359375,2.7900311946868896,1.4524433612823486,9.1716890335083
1667255029497612000,1.528612060546875,2.778067111968994,1.4261223077774048,9.154939651489258
1667255029500091400,1.53109130859375,2.775674343109131,1.428515076637268,9.131011009216309
1667255029502570800,1.53357080078125,2.7732813358306885,1.4333007335662842,9.107083320617676
1667255029505049900,1.5360498046875,2.770888566970825,1.466800332069397,9.090332984924316
1667255029507529200,1.538529296875,2.754138946533203,1.4763715267181396,9.111868858337402
1667255029510008600,1.541008544921875,2.7637102603912354,1.5194423198699951,9.109476089477539
1667255029512488000,1.543488037109375,2.7589244842529297,1.5553346872329712,9.154939651489258
1667255029514967000,1.545967041015625,2.7349963188171387,1.5960127115249634,9.186046600341797
1667255029517446400,1.5484462890625,2.7086751461029053,1.6366907358169556,9.212367057800293
1667255029519925800,1.55092578125,2.6943182945251465,1.6606189012527466,9.250652313232422
1667255029522405000,1.553405029296875,2.6871397495269775,1.6869399547576904,9.233902931213379
1667255029524884200,1.55588427734375,2.7110681533813477,1.6845471858978271,9.236295700073242
1667255029527363600,1.558363525390625,2.730210542678833,1.6965112686157227,9.245866775512695
1667255029529843000,1.560843017578125,2.7421748638153076,1.7060825824737549,9.265008926391602
1667255029532322300,1.563322265625,2.775674343109131,1.6941183805465698,9.269794464111328
1667255029534801700,1.5658017578125,2.823530673980713,1.6845471858978271,9.267401695251465
1667255029537281000,1.568281005859375,2.878565549850464,1.667797327041626,9.276973724365234
1667255029539760000,1.570760009765625,2.9455647468566895,1.6606189012527466,9.284152030944824
1667255029542239500,1.573239501953125,3.0340991020202637,1.6199408769607544,9.272188186645508
1667255029544718800,1.57571875,3.1202406883239746,1.5625132322311401,9.269794464111328
1667255029547198200,1.5781982421875,3.1824541091918945,1.5337992906570435,9.255437850952148
1667255029549677300,1.58067724609375,3.2470602989196777,1.5194423198699951,9.260223388671875
1667255029552156700,1.58315673828125,3.297309637069702,1.5002998113632202,9.236295700073242
1667255029554636000,1.585635986328125,3.321237802505493,1.5002998113632202,9.212367057800293
1667255029557115400,1.588115478515625,3.34995174407959,1.4763715267181396,9.183652877807617
1667255029559594500,1.590594482421875,3.3714871406555176,1.4644074440002441,9.17886734008789
1667255029562073900,1.593073974609375,3.383451223373413,1.4524433612823486,9.174081802368164
1667255029564553200,1.59555322265625,3.404986619949341,1.4404792785644531,9.169296264648438
1667255029567032600,1.598032470703125,3.445664644241333,1.4524433612823486,9.183652877807617
1667255029569512000,1.600511962890625,3.462414264678955,1.466800332069397,9.19561767578125
1667255029571991000,1.602990966796875,3.4576287269592285,1.4787644147872925,9.22433090209961
1667255029574470400,1.605470458984375,3.4480574131011963,1.5074782371520996,9.221938133239746
1667255029576949800,1.60794970703125,3.4121651649475098,1.5026925802230835,9.219545364379883
1667255029579429000,1.61042919921875,3.3786656856536865,1.5146567821502686,9.236295700073242
1667255029581908500,1.612908447265625,3.3475589752197266,1.5337992906570435,9.20279598236084
1667255029584387600,1.6153876953125,3.3020951747894287,1.5122638940811157,9.190832138061523
1667255029586867000,1.617866943359375,3.25663161277771,1.5050854682922363,9.18843936920166
1667255029589346300,1.62034619140625,3.201596736907959,1.5170495510101318,9.190832138061523
1667255029591825700,1.62282568359375,3.136990547180176,1.5050854682922363,9.174081802368164
1667255029594304800,1.6253046875,3.108276605606079,1.5146567821502686,9.138189315795898
1667255029596784000,1.6277841796875,3.0723843574523926,1.4979069232940674,9.107083320617676
1667255029599263500,1.630263427734375,3.0340991020202637,1.5098711252212524,9.107083320617676
1667255029601742800,1.632742919921875,2.9766714572906494,1.490728497505188,9.111868858337402
1667255029604222200,1.63522216796875,2.9288148880004883,1.4883357286453247,9.119047164916992
1667255029606701300,1.637701416015625,2.895315408706665,1.5050854682922363,9.145368576049805
1667255029609180700,1.6401806640625,2.8689942359924316,1.5026925802230835,9.142974853515625
1667255029611660000,1.642659912109375,2.8498518466949463,1.5074782371520996,9.131011009216309
1667255029614139400,1.645139404296875,2.8450660705566406,1.5409778356552124,9.10229778289795
1667255029616618500,1.647618408203125,2.8426733016967773,1.588834285736084,9.068798065185547
1667255029619097900,1.650097900390625,2.8283164501190186,1.581655740737915,9.044869422912598
1667255029621577200,1.6525771484375,2.7972097396850586,1.5601203441619873,9.025727272033691
1667255029624056600,1.655056640625,2.754138946533203,1.550549030303955,9.030512809753418
1667255029626536000,1.657535888671875,2.7110681533813477,1.5290136337280273,9.042476654052734
1667255029629015000,1.66001513671875,2.682354211807251,1.5050854682922363,9.049654960632324
1667255029631494400,1.662494384765625,2.6608188152313232,1.4739787578582764,9.056833267211914
1667255029633973800,1.664973876953125,2.6297121047973633,1.4620146751403809,9.066405296325684
1667255029636453000,1.667453125,2.5938198566436768,1.466800332069397,9.075976371765137
1667255029638932500,1.669932373046875,2.5770699977874756,1.4524433612823486,9.09272575378418
1667255029641411600,1.67241162109375,2.550748825073242,1.4500504732131958,9.107083320617676
1667255029643891000,1.674890869140625,2.5459632873535156,1.4524433612823486,9.114261627197266
1667255029646370300,1.677370361328125,2.531606435775757,1.4811571836471558,9.097511291503906
1667255029648849700,1.679849609375,2.517249345779419,1.5098711252212524,9.09990406036377
1667255029651328800,1.682328857421875,2.510071039199829,1.550549030303955,9.111868858337402
1667255029653808000,1.68480810546875,2.4741785526275635,1.5744773149490356,9.126225471496582
1667255029656287500,1.68728759765625,2.414358139038086,1.5864413976669312,9.183652877807617
1667255029658766800,1.689766845703125,2.3545374870300293,1.5912270545959473,9.226723670959473
1667255029661246200,1.69224609375,2.337787628173828,1.6007983684539795,9.257830619812012
1667255029663725300,1.694725341796875,2.352144718170166,1.6199408769607544,9.31047248840332
1667255029666204700,1.69720458984375,2.3712873458862305,1.612762451171875,9.33440113067627
1667255029668684000,1.69968408203125,2.392822742462158,1.6199408769607544,9.365508079528809
1667255029671163400,1.702163330078125,2.4741785526275635,1.6462619304656982,9.41336441040039
1667255029673642800,1.704642822265625,2.5770699977874756,1.674975872039795,9.439684867858887
1667255029676121900,1.707121826171875,2.6608188152313232,1.6654045581817627,9.45882797241211
1667255029678601200,1.709601318359375,2.7182464599609375,1.6558332443237305,9.468399047851562
1667255029681080600,1.71208056640625,2.775674343109131,1.643869161605835,9.475577354431152
1667255029683560000,1.714559814453125,2.825923442840576,1.6342978477478027,9.473184585571289
1667255029686039000,1.7170390625,2.878565549850464,1.6247265338897705,9.425328254699707
1667255029688518400,1.719518310546875,2.9168508052825928,1.6031911373138428,9.387042999267578
1667255029690997800,1.721997802734375,2.943171739578247,1.581655740737915,9.346364974975586
1667255029693477000,1.72447705078125,2.943171739578247,1.5385849475860596,9.317651748657227
1667255029695956500,1.72695654296875,2.9312076568603516,1.5194423198699951,9.281759262084961
1667255029698435600,1.729435546875,2.9048867225646973,1.5026925802230835,9.245866775512695
1667255029700915000,1.7319150390625,2.8809585571289062,1.5050854682922363,9.22433090209961
1667255029703394300,1.734394287109375,2.8426733016967773,1.5050854682922363,9.193224906921387
1667255029705873700,1.736873779296875,2.7900311946868896,1.490728497505188,9.121439933776855
1667255029708352800,1.739352783203125,2.744567632675171,1.4787644147872925,9.066405296325684
1667255029710832000,1.74183203125,2.706282377243042,1.4524433612823486,9.006584167480469
1667255029713311500,1.7443115234375,2.6967110633850098,1.4117653369903564,8.963513374328613
1667255029715790800,1.746790771484375,2.667997360229492,1.3615161180496216,8.918049812316895
1667255029718270200,1.749270263671875,2.6153552532196045,1.3495519161224365,8.913264274597168
1667255029720749600,1.75174951171875,2.5842485427856445,1.34476637840271,8.865407943725586
1667255029723228700,1.754228759765625,2.5698914527893066,1.3399807214736938,8.824729919433594
1667255029725708000,1.7567080078125,2.550748825073242,1.3351950645446777,8.764909744262695
1667255029728187400,1.7591875,2.5603201389312744,1.3280165195465088,8.688339233398438
1667255029730666800,1.761666748046875,2.5746772289276123,1.277767300605774,8.592626571655273
1667255029733145900,1.764145751953125,2.586641311645508,1.2705888748168945,8.516056060791016
1667255029735625200,1.766625244140625,2.5938198566436768,1.3160524368286133,8.46580696105957
1667255029738104600,1.7691044921875,2.6225335597991943,1.3663017749786377,8.439485549926758
1667255029740584000,1.771583984375,2.6321048736572266,1.4165509939193726,8.398807525634766
1667255029743063300,1.774063232421875,2.6536402702331543,1.4691931009292603,8.38684368133545
1667255029745542400,1.77654248046875,2.65842604637146,1.490728497505188,8.34855842590332
1667255029748021800,1.779021728515625,2.651247501373291,1.5194423198699951,8.319844245910645
1667255029750501000,1.781501220703125,2.6536402702331543,1.526620864868164,8.267202377319336
1667255029752980500,1.78398046875,2.6464617252349854,1.526620864868164,8.212167739868164
1667255029755459600,1.78645947265625,2.6488547325134277,1.5337992906570435,8.161917686462402
1667255029757939000,1.78893896484375,2.5938198566436768,1.5409778356552124,8.11406135559082
1667255029760418300,1.791418212890625,2.4837498664855957,1.5170495510101318,8.02791976928711
1667255029762897700,1.793897705078125,2.3976082801818848,1.495514154434204,7.929814338684082
1667255029765377000,1.796376953125,2.3330020904541016,1.4979069232940674,7.824530124664307
1667255029767856000,1.798856201171875,2.234896421432495,1.5026925802230835,7.735995769500732
1667255029770335500,1.80133544921875,2.2061824798583984,1.4859428405761719,7.597211837768555
1667255029772814800,1.80381494140625,2.139183521270752,1.5026925802230835,7.475177764892578
1667255029775294200,1.806294189453125,2.012363910675049,1.490728497505188,7.345965385437012
1667255029777773600,1.808773681640625,1.9334007501602173,1.4572290182113647,7.231110095977783
1667255029780252700,1.811252685546875,1.97407865524292,1.4524433612823486,7.09711217880249
1667255029782732000,1.81373193359375,2.0410776138305664,1.4404792785644531,6.98704195022583
1667255029785211400,1.81621142578125,2.115255117416382,1.4261223077774048,6.893722057342529
1667255029787690800,1.818690673828125,2.2851455211639404,1.428515076637268,6.759724140167236
1667255029790169900,1.821169921875,2.4047868251800537,1.4380863904953003,6.606583118438721
1667255029792649200,1.823649169921875,2.493321180343628,1.435693621635437,6.441478729248047
1667255029795128600,1.826128662109375,2.4909284114837646,1.3950155973434448,6.247660160064697
1667255029797608000,1.82860791015625,2.500499725341797,1.3208380937576294,6.072983741760254
1667255029800087300,1.83108740234375,2.495713949203491,1.277767300605774,5.934200286865234
1667255029802566400,1.83356640625,2.5124638080596924,1.2179467678070068,5.804987907409668
1667255029805045800,1.836045654296875,2.562713146209717,1.1461620330810547,5.6925249099731445
1667255029807525000,1.838525146484375,2.6297121047973633,1.0959128141403198,5.563312530517578
1667255029810004500,1.84100439453125,2.7110681533813477,1.007378339767456,5.391029357910156
1667255029812483800,1.84348388671875,3.122633457183838,0.8039883971214294,5.113461971282959
1667255029814963000,1.845962890625,4.412364959716797,0.7513462901115417,4.704289436340332
1667255029817442300,1.8484423828125,4.5391845703125,0.7968099117279053,4.453042984008789
1667255029819921700,1.850921630859375,4.527220249176025,0.6484549641609192,4.082155227661133
1667255029822401000,1.853401123046875,4.445864677429199,0.6317051649093628,3.689732551574707
1667255029824880000,1.855880126953125,2.840280532836914,1.0839486122131348,2.885744094848633
1667255029827359500,1.858359375,1.7587246894836426,1.3854442834854126,2.3736801147460938
1667255029829838800,1.8608388671875,1.5050854682922363,1.5409778356552124,2.1918256282806396
1667255029832318200,1.863318115234375,1.459621787071228,1.5242279767990112,2.03629207611084
1667255029834797600,1.865797607421875,1.3806586265563965,1.373480200767517,1.832902193069458
1667255029837276700,1.868276611328125,1.4069796800613403,1.1892328262329102,1.6414763927459717
1667255029839756000,1.870756103515625,1.4691931009292603,1.0145567655563354,1.4739787578582764
1667255029842235400,1.8732353515625,1.4691931009292603,0.8781659007072449,1.3902299404144287
1667255029844714800,1.87571484375,1.4787644147872925,0.7585247755050659,1.3232308626174927
1667255029847193900,1.87819384765625,1.5074782371520996,0.672383189201355,1.2705888748168945
1667255029849673200,1.880673095703125,1.5385849475860596,0.5910272002220154,1.2275179624557495
1667255029852152600,1.883152587890625,1.5625132322311401,0.48813581466674805,1.2083754539489746
1667255029854632000,1.8856318359375,1.5864413976669312,0.4163511395454407,1.1940184831619263
1667255029857111300,1.888111328125,1.667797327041626,0.34217363595962524,1.1892328262329102
1667255029859590400,1.89059033203125,1.7515461444854736,0.28953152894973755,1.1748759746551514
1667255029862069800,1.89306982421875,1.832902193069458,0.24167509377002716,1.191625714302063
1667255029864549000,1.895549072265625,1.892722725868225,0.19621145725250244,1.210768222808838
1667255029867028500,1.898028564453125,1.9860427379608154,0.16271193325519562,1.2442678213119507
1667255029869507800,1.9005078125,2.0889341831207275,0.12203395366668701,1.277767300605774
1667255029871987000,1.902987060546875,2.2468605041503906,0.11246266216039658,1.332802176475525
1667255029874466300,1.90546630859375,2.4430718421936035,0.11485548317432404,1.397408366203308
1667255029876945700,1.907945556640625,2.6488547325134277,0.12442677468061447,1.459621787071228
1667255029879425000,1.910425048828125,2.857030153274536,0.11724831163883209,1.5314065217971802
1667255029881904000,1.912904052734375,3.081955671310425,0.11485548317432404,1.6414763927459717
1667255029884383500,1.915383544921875,3.3068809509277344,0.13160525262355804,1.7371892929077148
1667255029886862800,1.91786279296875,3.5437703132629395,0.15074782073497772,1.8305093050003052
1667255029889342200,1.92034228515625,3.7471601963043213,0.14835500717163086,1.8975083827972412
1667255029891821600,1.922821533203125,3.955335855484009,0.16031911969184875,1.9908283948898315
1667255029894301000,1.925301025390625,4.170690059661865,0.13160525262355804,2.0673987865448
1667255029896780000,1.927780029296875,4.357329845428467,0.1339980661869049,2.1607189178466797
1667255029899259400,1.93025927734375,4.534399032592773,0.1339980661869049,2.2301106452941895
1667255029901738800,1.93273876953125,4.701896667480469,0.1339980661869049,2.297109842300415
1667255029904218000,1.935218017578125,4.8502516746521,0.12203395366668701,2.359323024749756
1667255029906697200,1.937697265625,5.000999450683594,0.10767702013254166,2.414358139038086
1667255029909176600,1.940176513671875,5.154139995574951,0.11485548317432404,2.4717857837677
1667255029911656000,1.942656005859375,5.295316696166992,0.10767702013254166,2.5076780319213867
1667255029914135300,1.94513525390625,5.402993679046631,0.10289137065410614,2.5363919734954834
1667255029916614400,1.947614501953125,5.501099109649658,0.08853443711996078,2.5531418323516846
1667255029919093800,1.95009375,5.584847927093506,0.07657032459974289,2.5746772289276123
1667255029921573000,1.952572998046875,5.647061347961426,0.062213387340307236,2.6009981632232666
1667255029924052500,1.955052490234375,5.704489231109619,0.0526420995593071,2.612962245941162
1667255029926531800,1.95753173828125,5.737988471984863,0.02632104977965355,2.6153552532196045
1667255029929011000,1.960010986328125,5.7619171142578125,0.02392822690308094,2.59621262550354
1667255029931490300,1.962490234375,5.769095420837402,0.016749758273363113,2.5770699977874756
1667255029933969700,1.9649697265625,5.766702651977539,0.007178467698395252,2.5674986839294434
1667255029936449000,1.967448974609375,5.747560024261475,0.009571290574967861,2.550748825073242
1667255029938928000,1.96992822265625,5.745167255401611,-0.01196411345154047,2.531606435775757
1667255029941407500,1.972407470703125,5.726024627685547,-0.019142581149935722,2.510071039199829
1667255029943886800,1.974886962890625,5.6925249099731445,-0.031106693670153618,2.493321180343628
1667255029946366200,1.9773662109375,5.6446685791015625,-0.035892341285943985,2.4574289321899414
1667255029948845600,1.979845458984375,5.599205017089844,-0.035892341285943985,2.4502503871917725
1667255029951325000,1.982324951171875,5.568098068237305,-0.064606212079525,2.445464849472046
1667255029953804000,1.984803955078125,5.553741455078125,-0.08853443711996078,2.4430718421936035
1667255029956283400,1.987283447265625,5.551348686218262,-0.08614161610603333,2.4287149906158447
1667255029958762800,1.9897626953125,5.553741455078125,-0.08135596662759781,2.4526431560516357
1667255029961242000,1.9922421875,5.5728840827941895,-0.10049854964017868,2.4765713214874268
1667255029963721200,1.99472119140625,5.625525951385498,-0.0933200865983963,2.5196423530578613
1667255029966200600,1.99720068359375,5.699703693389893,-0.11006984114646912,2.572284460067749
1667255029968680000,1.999679931640625,5.771488189697266,-0.13160525262355804,2.6392834186553955
1667255029971159300,2.0021591796875,5.86002254486084,-0.14356936514377594,2.7326035499572754
1667255029973638700,2.004638671875,5.986842155456543,-0.16271193325519562,2.8139593601226807
1667255029976117800,2.00711767578125,6.120840549468994,-0.16749759018421173,2.926422119140625
1667255029978597000,2.00959716796875,6.262016773223877,-0.19142581522464752,3.0340991020202637
1667255029981076500,2.012076416015625,6.403193473815918,-0.20338992774486542,3.160918712615967
1667255029983555800,2.014555908203125,6.5419769287109375,-0.20338992774486542,3.2709884643554688
1667255029986035200,2.01703515625,6.687939167022705,-0.22492532432079315,3.397808074951172
1667255029988514300,2.019514404296875,6.8243303298950195,-0.22971096634864807,3.5341989994049072
1667255029990993700,2.02199365234375,6.967899322509766,-0.2560320198535919,3.658625841140747
1667255029993473000,2.02447314453125,7.113861560821533,-0.2584248483181,3.792623996734619
1667255029995952400,2.026952392578125,7.23589563369751,-0.2727817893028259,3.9146578311920166
1667255029998431500,2.029431396484375,7.357929706573486,-0.2871387302875519,4.039084434509277
1667255030000910800,2.031910888671875,7.4847493171691895,-0.30149564146995544,4.1491546630859375
1667255030003390200,2.03439013671875,7.613961696624756,-0.29431718587875366,4.280759811401367
1667255030005869600,2.03686962890625,7.731209754943848,-0.3158525824546814,4.41475772857666
1667255030008349000,2.039348876953125,7.872386455535889,-0.3278166949748993,4.553541660308838
1667255030010828000,2.041828125,7.992027759552002,-0.3397808074951172,4.675575256347656
1667255030013307400,2.044307373046875,8.118846893310547,-0.349352091550827,4.785645484924316
1667255030015786800,2.046786865234375,8.257631301879883,-0.37088751792907715,4.907679080963135
1667255030018266000,2.04926611328125,8.410771369934082,-0.3732803463935852,5.036891460418701
1667255030020745200,2.0517451171875,8.568697929382324,-0.4019941985607147,5.168497085571289
1667255030023224600,2.054224609375,8.733802795410156,-0.4426721930503845,5.312066078186035
1667255030025704000,2.056703857421875,8.903693199157715,-0.4785645306110382,5.431707382202148
1667255030028183300,2.059183349609375,9.07119083404541,-0.5264210104942322,5.546562671661377
1667255030030662700,2.06166259765625,9.214759826660156,-0.5838487148284912,5.66620397567749
1667255030033142000,2.06414208984375,9.34875774383545,-0.6245267391204834,5.752345561981201
1667255030035621000,2.06662109375,9.45882797241211,-0.6652047038078308,5.826523303985596
1667255030038100500,2.0691005859375,9.53779125213623,-0.7322037220001221,5.876772403717041
1667255030040579800,2.071579833984375,9.607182502746582,-0.7896314859390259,5.912664890289307
1667255030043059200,2.07405908203125,9.635896682739258,-0.8614161610603333,5.907878875732422
1667255030045538300,2.076538330078125,9.633503913879395,-0.916451096534729,5.891129493713379
1667255030048017700,2.079017578125,9.600004196166992,-0.9858429431915283,5.862415313720703
1667255030050497000,2.0814970703125,9.528220176696777,-1.038485050201416,5.802595138549805
1667255030052976400,2.083976318359375,9.425328254699707,-1.0911271572113037,5.723631858825684
1667255030055455700,2.086455810546875,9.300901412963867,-1.1509476900100708,5.623133182525635
1667255030057934800,2.088934814453125,9.154939651489258,-1.196411371231079,5.5034918785095215
1667255030060414200,2.091414306640625,8.97787094116211,-1.2394821643829346,5.3694939613342285
1667255030062893600,2.0938935546875,8.796015739440918,-1.2705888748168945,5.2043890953063965
1667255030065373000,2.096373046875,8.583054542541504,-1.31365966796875,5.051248550415039
1667255030067852000,2.09885205078125,8.34138011932373,-1.3232308626174927,4.874179840087891
1667255030070331400,2.101331298828125,8.109275817871094,-1.3471591472625732,4.704289436340332
1667255030072810800,2.103810791015625,7.877171993255615,-1.3663017749786377,4.543970108032227
1667255030075290000,2.1062900390625,7.635497093200684,-1.368694543838501,4.364508628845215
1667255030077769500,2.10876953125,7.429714202880859,-1.373480200767517,4.2281174659729
1667255030080248600,2.11124853515625,7.2430739402771,-1.3950155973434448,4.1036906242370605
1667255030082728000,2.11372802734375,7.087540626525879,-1.3926228284835815,3.9864425659179688
1667255030085207300,2.116207275390625,6.975078105926514,-1.3926228284835815,3.8883368968963623
1667255030087686700,2.118686767578125,6.915257453918457,-1.423729419708252,3.8333017826080322
1667255030090166000,2.121166015625,6.9104719161987305,-1.4524433612823486,3.783052682876587
1667255030092645000,2.12364501953125,6.92482852935791,-1.4787644147872925,3.775874137878418
1667255030095124500,2.12612451171875,7.025327205657959,-1.5098711252212524,3.8021950721740723
1667255030097603800,2.128603759765625,7.190432071685791,-1.5601203441619873,3.840480327606201
1667255030100083200,2.131083251953125,7.403393268585205,-1.6103696823120117,3.9361932277679443
1667255030102562300,2.133562255859375,7.6498541831970215,-1.6654045581817627,4.041477680206299
1667255030105041700,2.136041748046875,7.932207107543945,-1.7252250909805298,4.153940200805664
1667255030107521000,2.13852099609375,8.228917121887207,-1.801795482635498,4.295116424560547
1667255030110000400,2.14100048828125,8.551948547363281,-1.8664016723632812,4.4482574462890625
1667255030112479700,2.143479736328125,8.877371788024902,-1.947757601737976,4.620540618896484
1667255030114959000,2.145958984375,9.193224906921387,-2.0027925968170166,4.7712883949279785
1667255030117438200,2.148438232421875,9.521040916442871,-2.0889341831207275,4.9292144775390625
1667255030119917600,2.15091748046875,9.868000984191895,-2.1655044555664062,5.087141036987305
1667255030122397000,2.15339697265625,10.224531173706055,-2.2157537937164307,5.264209747314453
1667255030124876300,2.155876220703125,10.593026161193848,-2.311466693878174,5.465207099914551
1667255030127355400,2.15835546875,10.971092224121094,-2.368894338607788,5.6590256690979
1667255030129834800,2.160834716796875,11.351551055908203,-2.423929452896118,5.855237007141113
1667255030132314000,2.163314208984375,11.736795425415039,-2.486142635345459,6.0466628074646
1667255030134793500,2.16579345703125,12.102896690368652,-2.5220351219177246,6.228517532348633
1667255030137272800,2.16827294921875,12.476177215576172,-2.562713146209717,6.427121639251709
1667255030139752000,2.170751953125,12.847064971923828,-2.6009981632232666,6.606583118438721
1667255030142231300,2.173231201171875,13.239487648010254,-2.6368906497955322,6.814758777618408
1667255030144710700,2.175710693359375,13.643875122070312,-2.6799614429473877,7.015756130218506
1667255030147190000,2.17818994140625,14.029119491577148,-2.7014968395233154,7.202396392822266
1667255030149669000,2.180669189453125,14.414363861083984,-2.7397818565368652,7.3746795654296875
1667255030152148500,2.1831484375,14.81396484375,-2.7732813358306885,7.5637125968933105
1667255030154627800,2.1856279296875,15.208780288696289,-2.8115665912628174,7.76470947265625
1667255030157107200,2.188107177734375,15.574882507324219,-2.8666014671325684,7.934599876403809
1667255030159586600,2.190586669921875,15.936199188232422,-2.9168508052825928,8.12123966217041
1667255030162065700,2.193065673828125,16.28794288635254,-2.967100143432617,8.286344528198242
1667255030164545000,2.195544921875,16.627723693847656,-3.0101709365844727,8.444271087646484
1667255030167024400,2.1980244140625,16.94357681274414,-3.0556344985961914,8.590232849121094
1667255030169503700,2.200503662109375,17.230716705322266,-3.1250264644622803,8.764909744262695
1667255030171983000,2.202983154296875,17.49871253967285,-3.1752755641937256,8.915657043457031
1667255030174462200,2.205462158203125,17.730815887451172,-3.2207393646240234,9.066405296325684
1667255030176941600,2.207941650390625,17.941383361816406,-3.2709884643554688,9.186046600341797
1667255030179421000,2.2104208984375,18.1088809967041,-3.31884503364563,9.317651748657227
1667255030181900300,2.212900390625,18.25723648071289,-3.3690943717956543,9.470791816711426
1667255030184379400,2.21537939453125,18.350557327270508,-3.404986619949341,9.604789733886719
1667255030186858800,2.217858642578125,18.3912353515625,-3.428914785385132,9.710074424743652
1667255030189338000,2.220338134765625,18.410377502441406,-3.4504501819610596,9.832108497619629
1667255030191817500,2.2228173828125,18.372093200683594,-3.4672000408172607,9.944570541381836
1667255030194296800,2.225296875,18.300308227539062,-3.5030922889709473,10.054640769958496
1667255030196776000,2.22777587890625,18.195022583007812,-3.5054850578308105,10.133604049682617
1667255030199255300,2.23025537109375,18.051454544067383,-3.510270833969116,10.224531173706055
1667255030201734700,2.232734619140625,17.86481475830078,-3.5341989994049072,10.293923377990723
1667255030204214000,2.235214111328125,17.66142463684082,-3.5222349166870117,10.341779708862305
1667255030206693400,2.237693359375,17.448463439941406,-3.507878065109253,10.394421577453613
1667255030209172500,2.24017236328125,17.235502243041992,-3.469592809677124,10.439885139465332
1667255030211651800,2.24265185546875,17.001005172729492,-3.469592809677124,10.463813781738281
1667255030214131200,2.245131103515625,16.749757766723633,-3.4552359580993652,10.470992088317871
1667255030216610600,2.247610595703125,16.505691528320312,-3.431307554244995,10.456634521484375
1667255030219090000,2.25008984375,16.264015197753906,-3.4002010822296143,10.425528526306152
1667255030221569000,2.252569091796875,16.019947052001953,-3.376272678375244,10.360921859741211
1667255030224048400,2.25504833984375,15.76152229309082,-3.345165967941284,10.303494453430176
1667255030226527700,2.25752783203125,15.519847869873047,-3.3020951747894287,10.222138404846191
1667255030229007000,2.260007080078125,15.294921875,-3.2590243816375732,10.112068176269531
1667255030231486200,2.262486328125,15.072389602661133,-3.2279176712036133,9.978070259094238
1667255030233965600,2.264965576171875,14.83789348602295,-3.187239646911621,9.851250648498535
1667255030236445000,2.26744482421875,14.608181953430176,-3.1274192333221436,9.681360244750977
1667255030238924300,2.26992431640625,14.378471374511719,-3.0795626640319824,9.494720458984375
1667255030241403600,2.272403564453125,14.148759841918945,-3.0173492431640625,9.32004451751709
1667255030243882800,2.2748828125,13.933405876159668,-2.9383862018585205,9.121439933776855
1667255030246362000,2.277362060546875,13.72523021697998,-2.857030153274536,8.927620887756348
1667255030248841500,2.279841552734375,13.540983200073242,-2.7589244842529297,8.74337387084961
1667255030251320800,2.28232080078125,13.380663871765137,-2.66560435295105,8.57348346710205
1667255030253800200,2.28480029296875,13.25145149230957,-2.548356056213379,8.408378601074219
1667255030256279300,2.287279296875,13.17248821258545,-2.4358935356140137,8.264809608459473
1667255030258758700,2.289758544921875,13.134203910827637,-2.3330020904541016,8.157132148742676
1667255030261238000,2.292238037109375,13.15095329284668,-2.2301106452941895,8.056633949279785
1667255030263717400,2.29471728515625,13.222738265991211,-2.1343977451324463,8.001599311828613
1667255030266196700,2.29719677734375,13.351950645446777,-2.0506489276885986,7.9728851318359375
1667255030268675800,2.29967578125,13.526626586914062,-1.9669002294540405,7.982456207275391
1667255030271155200,2.3021552734375,13.739587783813477,-1.8975083827972412,8.00638484954834
1667255030273634600,2.304634521484375,13.971691131591797,-1.8233308792114258,8.039883613586426
1667255030276114000,2.307114013671875,14.242080688476562,-1.7802600860595703,8.09970474243164
1667255030278593000,2.309593017578125,14.522040367126465,-1.7204394340515137,8.190631866455078
1667255030281072400,2.312072265625,14.794822692871094,-1.6606189012527466,8.276773452758789
1667255030283551700,2.3145517578125,15.091532707214355,-1.6031911373138428,8.372486114501953
1667255030286031000,2.317031005859375,15.381064414978027,-1.5385849475860596,8.49452018737793
1667255030288510500,2.319510498046875,15.682559967041016,-1.4931213855743408,8.616554260253906
1667255030290989600,2.321989501953125,15.98884105682373,-1.4644074440002441,8.7505521774292
1667255030293469000,2.324468994140625,16.307086944580078,-1.4117653369903564,8.877371788024902
1667255030295948300,2.3269482421875,16.64208221435547,-1.3615161180496216,9.011369705200195
1667255030298427600,2.329427734375,16.97707748413086,-1.31365966796875,9.162117958068848
1667255030300907000,2.331906982421875,17.30967903137207,-1.2610175609588623,9.32722282409668
1667255030303386000,2.33438623046875,17.63031768798828,-1.1988041400909424,9.485149383544922
1667255030305865500,2.336865478515625,17.943777084350586,-1.1485549211502075,9.640682220458984
1667255030308344800,2.3393447265625,18.27159309387207,-1.1102696657180786,9.810572624206543
1667255030310824200,2.34182421875,18.570695877075195,-1.069591760635376,9.949356079101562
1667255030313303300,2.34430322265625,18.853050231933594,-1.0169496536254883,10.097711563110352
1667255030315782700,2.34678271484375,19.12104606628418,-0.97148597240448,10.26760196685791
1667255030318262000,2.349261962890625,19.4010066986084,-0.9116654396057129,10.427921295166016
1667255030320741400,2.351741455078125,19.621145248413086,-0.8709874153137207,10.554740905761719
1667255030323220700,2.354220703125,19.817358016967773,-0.8207381963729858,10.707880973815918
1667255030325700000,2.3567001953125,19.977676391601562,-0.7920243144035339,10.834700584411621
1667255030328179200,2.35917919921875,20.14038848876953,-0.7417750358581543,10.944770812988281
1667255030330658600,2.361658447265625,20.2552433013916,-0.7226324677467346,11.052447319030762
1667255030333138000,2.364137939453125,20.324636459350586,-0.6939185857772827,11.140982627868652
1667255030335617300,2.3666171875,20.3629207611084,-0.6556333899497986,11.217552185058594
1667255030338096400,2.369096435546875,20.36052703857422,-0.6269195079803467,11.277373313903809
1667255030340575700,2.37157568359375,20.305492401123047,-0.6005984544754028,11.315658569335938
1667255030343055000,2.37405517578125,20.21456527709961,-0.5814558863639832,11.34676456451416
1667255030345534500,2.376534423828125,20.061424255371094,-0.5599204897880554,11.36351490020752
1667255030348013800,2.379013916015625,19.889141082763672,-0.5288137793540955,11.341979026794434
1667255030350493000,2.381492919921875,19.68575096130371,-0.5000999569892883,11.337193489074707
1667255030352972300,2.38397216796875,19.477577209472656,-0.4666004180908203,11.308480262756348
1667255030355451600,2.38645166015625,19.25025749206543,-0.4259224236011505,11.286944389343262
1667255030357931000,2.388930908203125,19.054046630859375,-0.3924229145050049,11.248659133911133
1667255030360410000,2.39141015625,18.88654899597168,-0.34217363595962524,11.234302520751953
1667255030362889500,2.393889404296875,18.719051361083984,-0.31824541091918945,11.234302520751953
1667255030365368800,2.396368896484375,18.601802825927734,-0.2871387302875519,11.234302520751953
1667255030367848200,2.39884814453125,18.50609016418457,-0.2679961323738098,11.22233772277832
1667255030370327600,2.40132763671875,18.412769317626953,-0.25363919138908386,11.236695289611816
1667255030372807000,2.403806884765625,18.338592529296875,-0.2584248483181,11.23190975189209
1667255030375286000,2.4062861328125,18.24527359008789,-0.24885354936122894,11.217552185058594
1667255030377765400,2.408765380859375,18.144773483276367,-0.2560320198535919,11.184053421020508
1667255030380244700,2.41124462890625,18.017953872680664,-0.2679961323738098,11.131410598754883
1667255030382724000,2.41372412109375,17.8624210357666,-0.26560330390930176,11.062019348144531
1667255030385203200,2.416203125,17.694923400878906,-0.2727817893028259,10.980663299560547
1667255030387682600,2.4186826171875,17.503498077392578,-0.2919243574142456,10.86580753326416
1667255030390162000,2.421161865234375,17.29292869567871,-0.2967100143432617,10.73420238494873
1667255030392641300,2.423641357421875,17.07518196105957,-0.31106695532798767,10.6025972366333
1667255030395120600,2.42612060546875,16.84307861328125,-0.3326023519039154,10.435099601745605
1667255030397599700,2.428599853515625,16.589439392089844,-0.3445664644241333,10.248459815979004
1667255030400079000,2.4310791015625,16.32862091064453,-0.3326023519039154,10.080962181091309
1667255030402558500,2.433558349609375,16.053447723388672,-0.3397808074951172,9.91107177734375
1667255030405037800,2.436037841796875,15.787843704223633,-0.35413774847984314,9.695717811584473
1667255030407517000,2.438516845703125,15.55334758758545,-0.36610186100006104,9.523433685302734
1667255030409996300,2.440996337890625,15.345171928405762,-0.37088751792907715,9.34875774383545
1667255030412475600,2.4434755859375,15.184852600097656,-0.3684946894645691,9.20997428894043
1667255030414955000,2.445955078125,15.060425758361816,-0.3732803463935852,9.075976371765137
1667255030417434400,2.448434326171875,14.988640785217285,-0.3900300860404968,8.97787094116211
1667255030419913500,2.45091357421875,14.962320327758789,-0.3924229145050049,8.910871505737305
1667255030422392800,2.453392822265625,14.976676940917969,-0.4043870270252228,8.855836868286133
1667255030424872200,2.4558720703125,15.053247451782227,-0.4139583110809326,8.846264839172363
1667255030427351600,2.4583515625,15.165709495544434,-0.4211367964744568,8.85344409942627
1667255030429831000,2.460830810546875,15.333207130432129,-0.4498506486415863,8.894122123718262
1667255030432310000,2.46331005859375,15.534204483032227,-0.48095735907554626,8.958727836608887
1667255030434789400,2.465789306640625,15.787843704223633,-0.5072783827781677,9.042476654052734
1667255030437268700,2.468268798828125,16.05583953857422,-0.5335994362831116,9.104690551757812
1667255030439748000,2.470748046875,16.352550506591797,-0.5647061467170715,9.221938133239746
1667255030442227500,2.4732275390625,16.670795440673828,-0.5934200286865234,9.336793899536133
1667255030444706600,2.47570654296875,16.993825912475586,-0.6197410821914673,9.463613510131836
1667255030447186000,2.47818603515625,17.30967903137207,-0.6484549641609192,9.580862045288086
1667255030449665300,2.480665283203125,17.60160255432129,-0.698704183101654,9.702896118164062
1667255030452144600,2.48314453125,17.87677764892578,-0.7202396392822266,9.817750930786133
1667255030454624000,2.4856240234375,18.130416870117188,-0.7489534616470337,9.92542839050293
1667255030457103000,2.48810302734375,18.379270553588867,-0.7752745151519775,10.01156997680664
1667255030459582500,2.49058251953125,18.613767623901367,-0.8183453679084778,10.112068176269531
1667255030462061800,2.493061767578125,18.82672882080078,-0.849452018737793,10.195816993713379
1667255030464541200,2.495541259765625,19.025333404541016,-0.8662018179893494,10.2747802734375
1667255030467020300,2.498020263671875,19.202402114868164,-0.9020941257476807,10.341779708862305
1667255030469499600,2.500499755859375,19.36989974975586,-0.9667003750801086,10.427921295166016
1667255030471979000,2.50297900390625,19.520647048950195,-1.0145567655563354,10.51645565032959
1667255030474458400,2.505458251953125,19.63071632385254,-1.074377417564392,10.571490287780762
1667255030476937700,2.507937744140625,19.709680557250977,-1.1413763761520386,10.614561080932617
1667255030479416800,2.510416748046875,19.76232147216797,-1.2131611108779907,10.667202949523926
1667255030481896200,2.512896240234375,19.779071807861328,-1.2658032178878784,10.710273742675781
1667255030484375600,2.51537548828125,19.769500732421875,-1.3160524368286133,10.722238540649414
1667255030486855000,2.51785498046875,19.759929656982422,-1.3782658576965332,10.75813102722168
1667255030489334000,2.520333984375,19.714466094970703,-1.4261223077774048,10.805987358093262
1667255030491813400,2.5228134765625,19.6474666595459,-1.4763715267181396,10.849058151245117
1667255030494292700,2.525292724609375,19.566110610961914,-1.526620864868164,10.87298583984375
1667255030496772000,2.527772216796875,19.44168472290039,-1.5840486288070679,10.884950637817383
1667255030499251500,2.53025146484375,19.29572105407715,-1.6271194219589233,10.8969144821167
1667255030501730800,2.532730712890625,19.147367477416992,-1.6582261323928833,10.877771377563477
1667255030504210000,2.5352099609375,18.965511322021484,-1.6869399547576904,10.861021995544434
1667255030506689300,2.537689208984375,18.75494384765625,-1.7156537771224976,10.825129508972168
1667255030509168600,2.540168701171875,18.527626037597656,-1.7491533756256104,10.784451484680176
1667255030511648000,2.54264794921875,18.297914505004883,-1.7682958841323853,10.712666511535645
1667255030514127000,2.545127197265625,18.044275283813477,-1.789831280708313,10.619346618652344
1667255030516606500,2.5476064453125,17.769100189208984,-1.7922241687774658,10.540383338928223
1667255030519085800,2.5500859375,17.51306915283203,-1.8233308792114258,10.451848983764648
1667255030521565200,2.552565185546875,17.257036209106445,-1.8400806188583374,10.341779708862305
1667255030524044500,2.55504443359375,16.996219635009766,-1.8233308792114258,10.205389022827148
1667255030526523600,2.557523681640625,16.68036651611328,-1.8448662757873535,10.054640769958496
1667255030529003000,2.5600029296875,16.36212158203125,-1.825723648071289,9.872786521911621
1667255030531482400,2.562482421875,16.0103759765625,-1.820937991142273,9.67657470703125
1667255030533961700,2.564961669921875,15.64666748046875,-1.8161523342132568,9.470791816711426
1667255030536440800,2.56744091796875,15.28056526184082,-1.801795482635498,9.233902931213379
1667255030538920200,2.569920166015625,14.904891967773438,-1.7802600860595703,9.013762474060059
1667255030541399600,2.572399658203125,14.538790702819824,-1.7491533756256104,8.781659126281738
1667255030543879000,2.57487890625,14.196617126464844,-1.7324036359786987,8.583054542541504
1667255030546358300,2.577358154296875,13.914263725280762,-1.698904037475586,8.403593063354492
1667255030548837600,2.579837646484375,13.653446197509766,-1.6869399547576904,8.228917121887207
1667255030551316700,2.582316650390625,13.447663307189941,-1.6654045581817627,8.070990562438965
1667255030553796000,2.584796142578125,13.287343978881836,-1.6199408769607544,7.932207107543945
1667255030556275500,2.587275390625,13.194024085998535,-1.6055840253829956,7.83410120010376
1667255030558754800,2.5897548828125,13.141382217407227,-1.5792629718780518,7.76470947265625
1667255030561234000,2.59223388671875,13.1365966796875,-1.5696916580200195,7.726424217224121
1667255030563713300,2.59471337890625,13.16530990600586,-1.5720844268798828,7.688138961791992
1667255030566192600,2.597192626953125,13.232309341430664,-1.5625132322311401,7.654639720916748
1667255030568672000,2.599672119140625,13.356736183166504,-1.557727575302124,7.668996810913086
1667255030571151400,2.6021513671875,13.5242338180542,-1.550549030303955,7.70249605178833
1667255030573630700,2.604630615234375,13.703695297241211,-1.550549030303955,7.767102241516113
1667255030576109800,2.60710986328125,13.907085418701172,-1.550549030303955,7.814958572387695
1667255030578589200,2.609589111328125,14.124832153320312,-1.550549030303955,7.874779224395752
1667255030581068500,2.612068603515625,14.32582950592041,-1.5601203441619873,7.946564197540283
1667255030583548000,2.6145478515625,14.507683753967285,-1.5840486288070679,7.9968132972717285
1667255030586027000,2.617027099609375,14.672788619995117,-1.5840486288070679,8.02791976928711
1667255030588506400,2.61950634765625,14.811572074890137,-1.6055840253829956,8.066205024719238
1667255030590985700,2.62198583984375,14.955141067504883,-1.5936198234558105,8.09252643585205
1667255030593465000,2.624465087890625,15.026926040649414,-1.5960127115249634,8.118846893310547
1667255030595944400,2.6269443359375,15.084354400634766,-1.612762451171875,8.12123966217041
1667255030598423600,2.629423583984375,15.132210731506348,-1.6247265338897705,8.123632431030273
1667255030600903000,2.63190283203125,15.139389038085938,-1.6199408769607544,8.104490280151367
1667255030603382300,2.63438232421875,15.1417818069458,-1.6007983684539795,8.087740898132324
1667255030605861600,2.636861572265625,15.1417818069458,-1.5744773149490356,8.061419486999512
1667255030608340700,2.6393408203125,15.113067626953125,-1.5649060010910034,8.025527000427246
1667255030610820000,2.641820068359375,15.05564022064209,-1.550549030303955,7.994420528411865
1667255030613299500,2.644299560546875,15.007783889770508,-1.5361921787261963,7.953742504119873
1667255030615778800,2.64677880859375,14.94556999206543,-1.521835207939148,7.917850017547607
1667255030618258200,2.649258056640625,14.883357048034668,-1.4979069232940674,7.8819580078125
1667255030620737500,2.651737548828125,14.785250663757324,-1.4691931009292603,7.8556365966796875
1667255030623216600,2.654216552734375,14.703895568847656,-1.4500504732131958,7.798209190368652
1667255030625696000,2.656696044921875,14.584254264831543,-1.4141582250595093,7.750352382659912
1667255030628175400,2.65917529296875,14.45025634765625,-1.4141582250595093,7.69531774520874
1667255030630654700,2.66165478515625,14.311471939086914,-1.399801254272461,7.630711555480957
1667255030633133800,2.6641337890625,14.158331871032715,-1.373480200767517,7.558926582336426
1667255030635613200,2.66661328125,13.978869438171387,-1.3495519161224365,7.494320392608643
1667255030638092500,2.669092529296875,13.806586265563965,-1.3256237506866455,7.429714202880859
1667255030640572000,2.671572021484375,13.61037540435791,-1.3088740110397339,7.345965385437012
1667255030643051300,2.67405126953125,13.39262866973877,-1.2921242713928223,7.276573657989502
1667255030645530400,2.6765302734375,13.174881935119629,-1.2586246728897095,7.202396392822266
1667255030648009700,2.679009765625,12.964313507080078,-1.2370892763137817,7.109076023101807
1667255030650489000,2.681489013671875,12.760923385620117,-1.210768222808838,7.037291526794434
1667255030652968400,2.683968505859375,12.569497108459473,-1.2011969089508057,6.975078105926514
1667255030655447600,2.686447509765625,12.394821166992188,-1.184447169303894,6.908079147338867
1667255030657927000,2.688927001953125,12.217752456665039,-1.1653046607971191,6.836294174194336
1667255030660406300,2.69140625,12.035898208618164,-1.1318050622940063,6.790830612182617
1667255030662885600,2.6938857421875,11.854043006896973,-1.100698471069336,6.745367050170898
1667255030665365000,2.696364990234375,11.686545372009277,-1.0815558433532715,6.673582553863525
1667255030667844400,2.69884423828125,11.516654968261719,-1.0671988725662231,6.608976364135742
1667255030670323500,2.701323486328125,11.33958625793457,-1.0336993932724,6.5252275466918945
1667255030672802800,2.703802734375,11.186446189880371,-0.9858429431915283,6.453442573547363
1667255030675282200,2.7062822265625,11.026126861572266,-0.97148597240448,6.38165807723999
1667255030677761500,2.708761474609375,10.863414764404297,-0.9619147181510925,6.300302028656006
1667255030680240600,2.71124072265625,10.717453002929688,-0.9379864931106567,6.247660160064697
1667255030682720000,2.713719970703125,10.576275825500488,-0.9284151792526245,6.161518096923828
1667255030685199400,2.716199462890625,10.444670677185059,-0.9092726111412048,6.080162525177002
1667255030687678700,2.7186787109375,10.301101684570312,-0.8973084688186646,6.003592014312744
1667255030690158000,2.721157958984375,10.162318229675293,-0.8685946464538574,5.931807518005371
1667255030692637200,2.72363720703125,10.02592658996582,-0.851844847202301,5.864808082580566
1667255030695116500,2.726116455078125,9.908679008483887,-0.8350951075553894,5.795416355133057
1667255030697596000,2.728595947265625,9.791430473327637,-0.8255237936973572,5.72841739654541
1667255030700075300,2.7310751953125,9.693324089050293,-0.8159525394439697,5.6590256690979
1667255030702554600,2.7335546875,9.588040351867676,-0.7896314859390259,5.601597785949707
1667255030705033700,2.73603369140625,9.485149383544922,-0.7848458290100098,5.551348686218262
1667255030707513000,2.73851318359375,9.384650230407715,-0.7752745151519775,5.489135265350342
1667255030709992400,2.740992431640625,9.286544799804688,-0.763310432434082,5.426921844482422
1667255030712471800,2.743471923828125,9.183652877807617,-0.729810893535614,5.359922885894775
1667255030714951200,2.745951171875,9.087940216064453,-0.7345965504646301,5.276174068450928
1667255030717430300,2.74843017578125,8.975478172302246,-0.7226324677467346,5.2043890953063965
1667255030719909600,2.75090966796875,8.858229637145996,-0.7034898400306702,5.134997367858887
1667255030722389000,2.753388916015625,8.7505521774292,-0.6843472719192505,5.072783946990967
1667255030724868400,2.755868408203125,8.642875671386719,-0.6699903607368469,4.996213912963867
1667255030727347500,2.758347412109375,8.528019905090332,-0.6532405614852905,4.900500774383545
1667255030729826800,2.760826904296875,8.417949676513672,-0.638883650302887,4.811966419219971
1667255030732306200,2.76330615234375,8.317451477050781,-0.6221339106559753,4.735395908355713
1667255030734785500,2.76578564453125,8.221738815307617,-0.5982056856155396,4.658825874328613
1667255030737265000,2.768264892578125,8.13798999786377,-0.5982056856155396,4.610969066619873
1667255030739744300,2.770744140625,8.078168869018555,-0.5838487148284912,4.553541660308838
1667255030742223400,2.773223388671875,8.030312538146973,-0.5838487148284912,4.493721008300781
1667255030744702700,2.77570263671875,8.003992080688477,-0.5647061467170715,4.443471431732178
1667255030747182000,2.77818212890625,7.9968132972717285,-0.5551348328590393,4.42193603515625
1667255030749661400,2.780661376953125,8.011170387268066,-0.5431707501411438,4.395615100860596
1667255030752140500,2.783140625,8.042277336120605,-0.5407779216766357,4.369294166564941
1667255030754620000,2.785619873046875,8.066205024719238,-0.5335994362831116,4.376472473144531
1667255030757099300,2.788099365234375,8.09252643585205,-0.5264210104942322,4.374079704284668
1667255030759578600,2.79057861328125,8.128418922424316,-0.5335994362831116,4.371686935424805
1667255030762058000,2.79305810546875,8.176275253295898,-0.5216353535652161,4.383651256561279
1667255030764537000,2.795537109375,8.221738815307617,-0.519242525100708,4.376472473144531
1667255030767016400,2.798016357421875,8.257631301879883,-0.5096712112426758,4.369294166564941
1667255030769495800,2.800495849609375,8.274380683898926,-0.5024927258491516,4.366901397705078
1667255030771975200,2.80297509765625,8.312665939331055,-0.5144568681716919,4.35254430770874
1667255030774454300,2.805454345703125,8.327022552490234,-0.519242525100708,4.34536600112915
1667255030776933600,2.80793359375,8.338987350463867,-0.5144568681716919,4.335794448852539
1667255030779413000,2.8104130859375,8.350951194763184,-0.519242525100708,4.333401679992676
1667255030781892400,2.812892333984375,8.336593627929688,-0.5024927258491516,4.321437835693359
1667255030784371700,2.815371826171875,8.324629783630371,-0.4905286431312561,4.311866283416748
1667255030786851000,2.81785107421875,8.307880401611328,-0.5048855543136597,4.295116424560547
1667255030789330200,2.820330078125,8.286344528198242,-0.5240281820297241,4.2831525802612305
1667255030791809500,2.8228095703125,8.274380683898926,-0.519242525100708,4.264009952545166
1667255030794289000,2.825288818359375,8.24566650390625,-0.5096712112426758,4.244867324829102
1667255030796768300,2.827768310546875,8.197810173034668,-0.5072783827781677,4.213760852813721
1667255030799247400,2.830247314453125,8.14516830444336,-0.519242525100708,4.153940200805664
1667255030801726700,2.832726806640625,8.078168869018555,-0.519242525100708,4.130012035369873
1667255030804206000,2.8352060546875,7.992027759552002,-0.4977070987224579,4.101297855377197
1667255030806685400,2.837685546875,7.901100158691406,-0.4977070987224579,4.051048755645752
1667255030809164800,2.840164794921875,7.791030406951904,-0.4977070987224579,3.9840497970581055
1667255030811644000,2.842643798828125,7.6737823486328125,-0.5000999569892883,3.9218363761901855
1667255030814123300,2.845123291015625,7.5637125968933105,-0.5048855543136597,3.8739798069000244
1667255030816602600,2.8476025390625,7.439285755157471,-0.4953143000602722,3.814159393310547
1667255030819082000,2.85008203125,7.326822757720947,-0.49292147159576416,3.751945972442627
1667255030821561300,2.852561279296875,7.214360237121582,-0.5000999569892883,3.713660717010498
1667255030824040400,2.85504052734375,7.094718933105469,-0.5000999569892883,3.6466617584228516
1667255030826519800,2.857519775390625,6.996613502502441,-0.4953143000602722,3.589233875274658
1667255030828999200,2.859999267578125,6.891329288482666,-0.519242525100708,3.5605201721191406
1667255030831478500,2.862478515625,6.8171515464782715,-0.5240281820297241,3.5198421478271484
1667255030833957600,2.86495751953125,6.719046115875244,-0.5335994362831116,3.4815568923950195
1667255030836437000,2.86743701171875,6.64486837387085,-0.5264210104942322,3.4576287269592285
1667255030838916400,2.869916259765625,6.563512325286865,-0.5264210104942322,3.4265220165252686
1667255030841395700,2.872395751953125,6.496513366699219,-0.5479564070701599,3.3882367610931396
1667255030843875000,2.874875,6.441478729248047,-0.5575276613235474,3.3786656856536865
1667255030846354200,2.877354248046875,6.379265308380127,-0.5599204897880554,3.366701364517212
1667255030848833500,2.87983349609375,6.321837425231934,-0.550349235534668,3.3379876613616943
1667255030851313000,2.88231298828125,6.26440954208374,-0.550349235534668,3.321237802505493
1667255030853792300,2.884792236328125,6.221338748931885,-0.5694918036460876,3.2997024059295654
1667255030856271600,2.887271728515625,6.168696880340576,-0.5742774605751038,3.2997024059295654
1667255030858750700,2.889750732421875,6.116054534912109,-0.576670229434967,3.2829527854919434
1667255030861230000,2.89222998046875,6.068198204040527,-0.5790630578994751,3.2781670093536377
1667255030863709400,2.89470947265625,6.022734642028809,-0.576670229434967,3.2470602989196777
1667255030866188800,2.897188720703125,5.960521221160889,-0.5838487148284912,3.218346357345581
1667255030868668200,2.899668212890625,5.888736724853516,-0.5742774605751038,3.1920254230499268
1667255030871147300,2.902147216796875,5.814558982849121,-0.576670229434967,3.160918712615967
1667255030873626600,2.904626708984375,5.742774486541748,-0.5886343717575073,3.139383316040039
1667255030876106000,2.90710595703125,5.663811206817627,-0.6029912829399109,3.10109806060791
1667255030878585300,2.90958544921875,5.587240695953369,-0.6005984544754028,3.053241729736328
1667255030881064700,2.912064697265625,5.501099109649658,-0.5910272002220154,3.012563705444336
1667255030883543800,2.914543701171875,5.410171985626221,-0.5814558863639832,2.964707374572754
1667255030886023200,2.917023193359375,5.307280540466309,-0.5862415432929993,2.9216363430023193
1667255030888502500,2.91950244140625,5.216353416442871,-0.5862415432929993,2.871387243270874
1667255030890982000,2.92198193359375,5.142175674438477,-0.5718846321105957,2.830709218978882
1667255030893461000,2.9244609375,5.039284706115723,-0.5575276613235474,2.778067111968994
1667255030895940400,2.9269404296875,4.965106964111328,-0.5814558863639832,2.720639228820801
1667255030898419700,2.929419677734375,4.88853645324707,-0.5790630578994751,2.6847469806671143
1667255030900899000,2.931899169921875,4.8191447257995605,-0.5599204897880554,2.6321048736572266
1667255030903378400,2.93437841796875,4.749752998352051,-0.5623133182525635,2.5914268493652344
1667255030905857800,2.93685791015625,4.668396949768066,-0.5575276613235474,2.5698914527893066
1667255030908337000,2.9393369140625,4.610969066619873,-0.5455635786056519,2.53399920463562
1667255030910816300,2.941816162109375,4.563112735748291,-0.5288137793540955,2.478964328765869
1667255030913295600,2.944295654296875,4.48414945602417,-0.5312066078186035,2.4646072387695312
1667255030915775000,2.94677490234375,4.426722049713135,-0.5312066078186035,2.4191436767578125
1667255030918254000,2.949254150390625,4.3788652420043945,-0.5120640397071838,2.383251428604126
1667255030920733400,2.9517333984375,4.311866283416748,-0.5168496966362,2.3473589420318604
1667255030923212800,2.954212890625,4.254438877105713,-0.5096712112426758,2.311466693878174
1667255030925692200,2.956692138671875,4.206582069396973,-0.5000999569892883,2.287538528442383
1667255030928171500,2.959171630859375,4.158725738525391,-0.48095735907554626,2.2612173557281494
1667255030930650600,2.961650634765625,4.1036906242370605,-0.48574298620224,2.2061824798583984
1667255030933130000,2.9641298828125,4.063013076782227,-0.48095735907554626,2.1846470832824707
1667255030935609300,2.966609375,4.012763500213623,-0.46899324655532837,2.1750757694244385
1667255030938088700,2.969088623046875,3.9672999382019043,-0.45942193269729614,2.1367905139923096
1667255030940568000,2.971568115234375,3.9290146827697754,-0.4546363055706024,2.093719720840454
1667255030943047200,2.974047119140625,3.8811583518981934,-0.4546363055706024,2.053041934967041
1667255030945526500,2.976526611328125,3.8428730964660645,-0.44745782017707825,2.021935224533081
1667255030948006000,2.979005859375,3.78544545173645,-0.4307080805301666,2.012363910675049
1667255030950485200,2.9814853515625,3.759124279022217,-0.4307080805301666,1.9812572002410889
1667255030952964600,2.983964599609375,3.728017568588257,-0.41874396800994873,1.9621145725250244
1667255030955443700,2.986443603515625,3.6777684688568115,-0.4019941985607147,1.923829436302185
1667255030957923000,2.988923095703125,3.6466617584228516,-0.3900300860404968,1.9142581224441528
1667255030960402400,2.99140234375,3.6227335929870605,-0.39960137009620667,1.892722725868225
1667255030962881800,2.9938818359375,3.601198196411133,-0.4091726839542389,1.8640087842941284
1667255030965361000,2.99636083984375,3.5916268825531006,-0.4019941985607147,1.8496519327163696
1667255030967840300,2.99884033203125,3.5820555686950684,-0.37806597352027893,1.8592232465744019
1667255030970319600,3.001319580078125,3.565305709838867,-0.3924229145050049,1.832902193069458
1667255030972799000,3.003799072265625,3.5772697925567627,-0.3924229145050049,1.825723648071289
1667255030975278300,3.0062783203125,3.5605201721191406,-0.380458801984787,1.8233308792114258
1667255030977757700,3.0087578125,3.5820555686950684,-0.3732803463935852,1.8352949619293213
1667255030980236800,3.01123681640625,3.6059837341308594,-0.3852444589138031,1.8352949619293213
1667255030982716200,3.013716064453125,3.6323046684265137,-0.3756731450557709,1.8496519327163696
1667255030985195500,3.016195556640625,3.6873397827148438,-0.37806597352027893,1.8687944412231445
1667255030987675000,3.0186748046875,3.7160534858703613,-0.38763725757598877,1.8807586431503296
1667255030990154000,3.021154052734375,3.7567315101623535,-0.39960137009620667,1.892722725868225
1667255030992633300,3.02363330078125,3.806980848312378,-0.37806597352027893,1.8999011516571045
1667255030995112700,3.02611279296875,3.8668015003204346,-0.3852444589138031,1.923829436302185
1667255030997592000,3.028592041015625,3.9314076900482178,-0.39481574296951294,1.9645073413848877
1667255031000071400,3.031071533203125,3.9912281036376953,-0.39481574296951294,1.9956140518188477
1667255031002550500,3.033550537109375,4.048655986785889,-0.38285163044929504,2.0267207622528076
1667255031005030000,3.03602978515625,4.094119548797607,-0.397208571434021,2.053041934967041
1667255031007509200,3.03850927734375,4.151547431945801,-0.4139583110809326,2.0578274726867676
1667255031009988600,3.040988525390625,4.18983268737793,-0.4259224236011505,2.076970100402832
1667255031012467700,3.0434677734375,4.216153621673584,-0.4259224236011505,2.0961127281188965
1667255031014947000,3.045947021484375,4.2281174659729,-0.4091726839542389,2.1128623485565186
1667255031017426400,3.048426513671875,4.223331928253174,-0.4091726839542389,2.0985054969787598
1667255031019905800,3.05090576171875,4.216153621673584,-0.41156548261642456,2.093719720840454
1667255031022385200,3.05338525390625,4.204189300537109,-0.42352959513664246,2.0817556381225586
1667255031024864500,3.055864501953125,4.194618225097656,-0.4331009089946747,2.0793628692626953
1667255031027343600,3.058343505859375,4.175475597381592,-0.41874396800994873,2.0745773315429688
1667255031029823000,3.060822998046875,4.153940200805664,-0.4139583110809326,2.043470621109009
1667255031032302300,3.06330224609375,4.139583110809326,-0.4139583110809326,2.043470621109009
1667255031034781700,3.06578173828125,4.1419758796691895,-0.3900300860404968,2.03629207611084
1667255031037260800,3.0682607421875,4.161118507385254,-0.39481574296951294,2.043470621109009
1667255031039740200,3.070740234375,4.1659040451049805,-0.4043870270252228,2.0673987865448
1667255031042219500,3.073219482421875,4.177868366241455,-0.397208571434021,2.0793628692626953
1667255031044699000,3.075698974609375,4.1970109939575195,-0.4139583110809326,2.0817556381225586
1667255031047178200,3.07817822265625,4.211368083953857,-0.42352959513664246,2.115255117416382
1667255031049657300,3.0806572265625,4.208974838256836,-0.39960137009620667,2.115255117416382
1667255031052136700,3.08313671875,4.206582069396973,-0.3900300860404968,2.0961127281188965
1667255031054616000,3.085615966796875,4.187439441680908,-0.39481574296951294,2.093719720840454
1667255031057095400,3.088095458984375,4.185046672821045,-0.38763725757598877,2.0889341831207275
1667255031059574800,3.09057470703125,4.1659040451049805,-0.3852444589138031,2.084148406982422
1667255031062054000,3.093053955078125,4.1347975730896,-0.38763725757598877,2.0650060176849365
1667255031064533200,3.095533203125,4.113262176513672,-0.38763725757598877,2.0650060176849365
1667255031067012600,3.0980126953125,4.084548473358154,-0.38285163044929504,2.062613010406494
1667255031069492000,3.100491943359375,4.053441524505615,-0.37088751792907715,2.0315065383911133
1667255031071971300,3.102971435546875,4.039084434509277,-0.3613162338733673,2.029113531112671
1667255031074450400,3.105450439453125,4.019941806793213,-0.35413774847984314,2.021935224533081
1667255031076929800,3.1079296875,3.9984066486358643,-0.349352091550827,2.0195422172546387
1667255031079409200,3.1104091796875,3.9936211109161377,-0.3445664644241333,2.038684844970703
1667255031081888500,3.112888427734375,4.00319242477417,-0.35413774847984314,2.0171494483947754
1667255031084367600,3.11536767578125,3.996013879776001,-0.33499518036842346,2.014756679534912
1667255031086847000,3.117846923828125,4.005585193634033,-0.33738797903060913,2.0338993072509766
1667255031089326300,3.120326416015625,4.015156269073486,-0.349352091550827,2.038684844970703
1667255031091805700,3.1228056640625,4.034298896789551,-0.3517449200153351,2.045863389968872
1667255031094285000,3.12528515625,4.070191383361816,-0.34695929288864136,2.0650060176849365
1667255031096764400,3.127764404296875,4.101297855377197,-0.349352091550827,2.091326951980591
1667255031099243500,3.130243408203125,4.146761417388916,-0.33499518036842346,2.1032910346984863
1667255031101723000,3.132722900390625,4.1970109939575195,-0.34217363595962524,2.1296122074127197
1667255031104202200,3.1352021484375,4.244867324829102,-0.33499518036842346,2.1607189178466797
1667255031106681600,3.137681640625,4.297509670257568,-0.3445664644241333,2.1774685382843018
1667255031109160700,3.14016064453125,4.369294166564941,-0.33738797903060913,2.2205393314361572
1667255031111640000,3.14264013671875,4.4243292808532715,-0.3445664644241333,2.258824586868286
1667255031114119400,3.145119384765625,4.486542224884033,-0.3517449200153351,2.289931297302246
1667255031116598800,3.147598876953125,4.548755645751953,-0.33499518036842346,2.3234307765960693
1667255031119078100,3.150078125,4.610969066619873,-0.33020952343940735,2.359323024749756
1667255031121557200,3.15255712890625,4.677968502044678,-0.34217363595962524,2.376072883605957
1667255031124036600,3.15503662109375,4.72582483291626,-0.3565305769443512,2.3976082801818848
1667255031126516000,3.157515869140625,4.7712883949279785,-0.3517449200153351,2.431107759475708
1667255031128995300,3.159995361328125,4.814359188079834,-0.3445664644241333,2.4502503871917725
1667255031131474700,3.162474609375,4.8502516746521,-0.34695929288864136,2.4885356426239014
1667255031133953800,3.164953857421875,4.895715236663818,-0.33738797903060913,2.5052852630615234
1667255031136433200,3.16743310546875,4.9531426429748535,-0.33499518036842346,2.541177749633789
1667255031138912500,3.16991259765625,5.010570526123047,-0.33499518036842346,2.5674986839294434
1667255031141392000,3.172391845703125,5.065605640411377,-0.33738797903060913,2.5938198566436768
1667255031143871200,3.174871337890625,5.106283664703369,-0.3278166949748993,2.6177480220794678
1667255031146350300,3.177350341796875,5.161318302154541,-0.3278166949748993,2.644068956375122
1667255031148829700,3.17982958984375,5.20678186416626,-0.3278166949748993,2.675175666809082
1667255031151309000,3.18230908203125,5.26181697845459,-0.3278166949748993,2.68953275680542
1667255031153788400,3.184788330078125,5.31685209274292,-0.3206382393836975,2.715853691101074
1667255031156267800,3.187267822265625,5.371886730194092,-0.3278166949748993,2.7517459392547607
1667255031158747000,3.189746826171875,5.419743061065674,-0.3086741268634796,2.7900311946868896
1667255031161226200,3.192226318359375,5.496313571929932,-0.31824541091918945,2.8354947566986084
1667255031163705600,3.19470556640625,5.551348686218262,-0.3086741268634796,2.8689942359924316
1667255031166185000,3.19718505859375,5.6207404136657715,-0.32303106784820557,2.902493953704834
1667255031168664000,3.1996640625,5.6685967445373535,-0.31824541091918945,2.9383862018585205
1667255031171143400,3.202143310546875,5.718846321105957,-0.31824541091918945,2.9934210777282715
1667255031173622800,3.204622802734375,5.788238048553467,-0.3038884699344635,3.0388846397399902
1667255031176102100,3.20710205078125,5.848058700561523,-0.3038884699344635,3.0723843574523926
1667255031178581500,3.20958154296875,5.907878875732422,-0.3158525824546814,3.098705291748047
1667255031181060600,3.212060546875,5.962913990020752,-0.31824541091918945,3.146561861038208
1667255031183540000,3.2145400390625,6.029912948608398,-0.31824541091918945,3.177668571472168
1667255031186019300,3.217019287109375,6.070590972900391,-0.31345975399017334,3.232703447341919
1667255031188498700,3.219498779296875,6.128018856048584,-0.3158525824546814,3.249453067779541
1667255031190978000,3.22197802734375,6.192625045776367,-0.3206382393836975,3.273381471633911
1667255031193457200,3.22445703125,6.247660160064697,-0.32542386651039124,3.314059257507324
1667255031195936500,3.2269365234375,6.305087566375732,-0.3326023519039154,3.345165967941284
1667255031198416000,3.229415771484375,6.362515449523926,-0.3326023519039154,3.383451223373413
1667255031200895200,3.231895263671875,6.419943332672119,-0.3326023519039154,3.428914785385132
1667255031203374600,3.23437451171875,6.465406894683838,-0.3326023519039154,3.460021495819092
1667255031205853700,3.236853759765625,6.510870456695557,-0.34217363595962524,3.510270833969116
1667255031208333000,3.2393330078125,6.561119556427002,-0.349352091550827,3.5222349166870117
1667255031210812400,3.2418125,6.616154670715332,-0.35413774847984314,3.5509488582611084
1667255031213291800,3.244291748046875,6.673582553863525,-0.3565305769443512,3.570091485977173
1667255031215771100,3.246771240234375,6.7310099601745605,-0.3756731450557709,3.601198196411133
1667255031218250200,3.249250244140625,6.778866767883301,-0.38285163044929504,3.620340585708618
1667255031220729600,3.2517294921875,6.845865726470947,-0.39481574296951294,3.641875982284546
1667255031223209000,3.254208984375,6.896114826202393,-0.3852444589138031,3.6993038654327393
1667255031225688300,3.256688232421875,6.9583282470703125,-0.3900300860404968,3.7399818897247314
1667255031228167700,3.259167724609375,7.025327205657959,-0.3924229145050049,3.7663028240203857
1667255031230646800,3.261646728515625,7.106683254241943,-0.4043870270252228,3.792623996734619
1667255031233126100,3.264126220703125,7.17368221282959,-0.39960137009620667,3.8428730964660645
1667255031235605500,3.26660546875,7.245467185974121,-0.4043870270252228,3.8811583518981934
1667255031238084900,3.2690849609375,7.322037220001221,-0.4331009089946747,3.9433717727661133
1667255031240564000,3.27156396484375,7.396214962005615,-0.4259224236011505,3.988835334777832
1667255031243043300,3.274043212890625,7.491927623748779,-0.43549370765686035,4.019941806793213
1667255031245522700,3.276522705078125,7.57806921005249,-0.4570291340351105,4.048655986785889
1667255031248002000,3.279001953125,7.661818027496338,-0.4785645306110382,4.0797624588012695
