time,seconds_elapsed,z,y,x
1667255027999665400,0.03066552734375,-0.018446922302246094,-0.01415988802909851,-0.04122591018676758
1667255028004624000,0.035623779296875,-0.009424209594726562,-0.056765004992485046,-0.07320737838745117
1667255028009582300,0.040582275390625,0.023052692413330078,-0.10120499134063721,-0.09556722640991211
1667255028015812400,0.046812255859375,0.02027750015258789,-0.09222909808158875,-0.07802295684814453
1667255028020870400,0.051870361328125,0.017691612243652344,-0.082943394780159,-0.06368732452392578
1667255028025928000,0.056927978515625,0.02035665512084961,-0.08393284678459167,-0.057111263275146484
1667255028030985700,0.06198583984375,0.026994705200195312,-0.08531908690929413,-0.05676746368408203
1667255028036043500,0.06704345703125,0.03590106964111328,-0.0869896411895752,-0.06038856506347656
1667255028041101300,0.072101318359375,0.043297767639160156,-0.08973221480846405,-0.06349563598632812
1667255028046159000,0.0771591796875,0.046484947204589844,0.29379144310951233,0.4466733932495117
1667255028051217000,0.082216796875,-0.020305156707763672,0.14737743139266968,0.48923444747924805
1667255028056274700,0.087274658203125,-0.14960145950317383,0.009678184986114502,0.5374093055725098
1667255028061332500,0.09233251953125,-0.34739208221435547,0.05070081353187561,0.5558414459228516
1667255028066390300,0.097390380859375,-0.6464457511901855,0.24405288696289062,0.5684313774108887
1667255028071448000,0.102447998046875,-0.8978753089904785,0.4267808794975281,0.5529046058654785
1667255028076505900,0.107505859375,-1.0527644157409668,0.4831109642982483,0.41743040084838867
1667255028081563400,0.1125634765625,-1.1547861099243164,0.40439844131469727,0.2095346450805664
1667255028086621200,0.11762109375,-1.1188015937805176,0.20311474800109863,-0.046608924865722656
1667255028091679000,0.122678955078125,-0.9187393188476562,-0.06114166975021362,-0.3123321533203125
1667255028096736800,0.12773681640625,-0.6125788688659668,-0.26400142908096313,-0.48691892623901367
1667255028101794600,0.132794677734375,-0.3254966735839844,-0.2804310917854309,-0.5184965133666992
1667255028106852400,0.137852294921875,-0.26892805099487305,-0.1635330319404602,-0.45113277435302734
1667255028111910100,0.14291015625,-0.335052490234375,-0.029162287712097168,-0.3006887435913086
1667255028116968000,0.147968017578125,-0.3550872802734375,-0.04205048084259033,-0.034478187561035156
1667255028122025700,0.153025634765625,-0.2198352813720703,-0.15351295471191406,0.12571144104003906
1667255028127083500,0.15808349609375,0.06985902786254883,-0.20495682954788208,-0.08196783065795898
1667255028132141300,0.163141357421875,0.29027891159057617,-0.2297077178955078,-0.24248838424682617
1667255028137199000,0.16819921875,0.35766077041625977,-0.17478948831558228,-0.3946957588195801
1667255028142162700,0.17316259765625,0.23854970932006836,-0.09392249584197998,-0.4292893409729004
1667255028147121400,0.178121337890625,0.008160591125488281,0.001033186912536621,-0.36026811599731445
1667255028152080000,0.183079833984375,-0.19251441955566406,0.04472029209136963,-0.28354358673095703
1667255028157038600,0.18803857421875,-0.42908811569213867,0.05793517827987671,-0.17979764938354492
1667255028161997300,0.192997314453125,-0.7658605575561523,-0.007340133190155029,-0.1275959014892578
1667255028166955800,0.197955810546875,-1.0931453704833984,-0.06231874227523804,-0.09885120391845703
1667255028171914500,0.20291455078125,-1.3837776184082031,-0.07209944725036621,-0.07651138305664062
1667255028176873000,0.207873046875,-1.5643224716186523,0.0022662878036499023,-0.12700939178466797
1667255028181831700,0.212831787109375,-1.5105886459350586,0.009052813053131104,-0.18229913711547852
1667255028186790100,0.2177900390625,-1.231489658355713,0.062373220920562744,-0.19609451293945312
1667255028191748900,0.222748779296875,-1.1558170318603516,0.3273470997810364,-0.2346806526184082
1667255028196707300,0.227707275390625,-1.2623920440673828,0.6264320015907288,-0.19380474090576172
1667255028201666000,0.232666015625,-1.5071377754211426,0.8372766375541687,-0.024672985076904297
1667255028206624500,0.23762451171875,-1.8035411834716797,0.8682584166526794,0.20198440551757812
1667255028211583200,0.242583251953125,-1.8683786392211914,0.7479053735733032,0.349700927734375
1667255028216541700,0.247541748046875,-1.6134607791900635,0.5740982294082642,0.3680243492126465
1667255028221500400,0.25250048828125,-1.0067315101623535,0.42106717824935913,0.2871856689453125
1667255028226459100,0.257459228515625,-0.31438207626342773,0.29524511098861694,0.10062074661254883
1667255028231417600,0.26241748046875,0.09065389633178711,0.18745481967926025,-0.06613492965698242
1667255028236376300,0.267376220703125,0.2920980453491211,0.17370712757110596,-0.05810832977294922
1667255028241334800,0.272334716796875,0.28257179260253906,0.1967787742614746,0.058176517486572266
1667255028246293500,0.27729345703125,0.17966985702514648,0.15199482440948486,0.23311710357666016
1667255028251252000,0.282251953125,0.2626481056213379,0.036344051361083984,0.31106090545654297
1667255028256210700,0.287210693359375,0.5507612228393555,-0.16550284624099731,0.2954530715942383
1667255028261169200,0.292169189453125,0.7420883178710938,-0.3417762517929077,0.3013467788696289
1667255028266128000,0.2971279296875,0.6205477714538574,-0.38396143913269043,0.38207149505615234
1667255028271086300,0.30208642578125,0.23498010635375977,-0.3394657373428345,0.41478824615478516
1667255028276045000,0.307045166015625,-0.05603599548339844,-0.28647947311401367,0.3512105941772461
1667255028281003800,0.312003662109375,-0.04935312271118164,-0.23531615734100342,0.2613973617553711
1667255028285962200,0.316962158203125,0.22520112991333008,-0.11828696727752686,0.3060750961303711
1667255028290921000,0.3219208984375,0.2669258117675781,0.033553123474121094,0.49768733978271484
1667255028295879400,0.32687939453125,-0.02897357940673828,0.19542503356933594,0.7930965423583984
1667255028300838100,0.331838134765625,-0.37383460998535156,0.41363435983657837,1.1293230056762695
1667255028305796600,0.336796630859375,-0.46555280685424805,0.65324866771698,1.3796453475952148
1667255028310755300,0.34175537109375,-0.3354802131652832,0.6814748048782349,1.4217844009399414
1667255028315713800,0.3467138671875,-0.26505374908447266,0.4696982502937317,1.16558837890625
1667255028320672500,0.351672607421875,-0.16667747497558594,0.27337419986724854,0.766510009765625
1667255028325631000,0.356630859375,0.1971149444580078,0.43056583404541016,0.5991487503051758
1667255028330589700,0.361589599609375,0.3707413673400879,0.5577185153961182,0.5951108932495117
1667255028335548400,0.36654833984375,0.22940492630004883,0.4436197280883789,0.6359958648681641
1667255028340507000,0.3715068359375,0.08555269241333008,0.22847342491149902,0.7209453582763672
1667255028345465600,0.376465576171875,0.018358707427978516,0.07993829250335693,0.7524919509887695
1667255028350424000,0.381424072265625,0.0032148361206054688,0.018030881881713867,0.7843503952026367
1667255028355382800,0.3863828125,0.0736989974975586,0.038125038146972656,0.7302970886230469
1667255028360341200,0.39134130859375,0.18234729766845703,-0.06806576251983643,0.5473833084106445
1667255028365300000,0.396300048828125,0.2785353660583496,-0.1987113356590271,0.3450460433959961
1667255028370258400,0.401258544921875,0.3557765483856201,-0.23631566762924194,0.2915353775024414
1667255028375217200,0.406217041015625,0.5426754951477051,-0.23855936527252197,0.31607913970947266
1667255028380176000,0.41117578125,0.8390913009643555,-0.27023017406463623,0.30556488037109375
1667255028385134300,0.41613427734375,1.1406974792480469,-0.3336970806121826,0.20281600952148438
1667255028390093000,0.421093017578125,1.3331999778747559,-0.39999115467071533,0.096282958984375
1667255028395051500,0.426051513671875,1.3300361633300781,-0.46412283182144165,-0.02014923095703125
1667255028400010200,0.43101025390625,1.255312204360962,-0.4808715581893921,-0.12630081176757812
1667255028404968700,0.43596875,1.1735351085662842,-0.518956184387207,-0.2388172149658203
1667255028409927400,0.440927490234375,1.0821342468261719,-0.5094642639160156,-0.37760066986083984
1667255028414886000,0.445885986328125,0.9234135150909424,-0.47644418478012085,-0.4745807647705078
1667255028419844600,0.4508447265625,0.6859836578369141,-0.47291016578674316,-0.5644664764404297
1667255028424803000,0.455802978515625,0.2314291000366211,-0.5473201870918274,-0.6467771530151367
1667255028429761800,0.46076171875,-0.3403968811035156,-0.584744930267334,-0.6796712875366211
1667255028434720500,0.465720458984375,-0.7973141670227051,-0.5181179046630859,-0.5975799560546875
1667255028439679000,0.470678955078125,-0.9490740299224854,-0.32311010360717773,-0.3527822494506836
1667255028444637700,0.4756376953125,-0.7832896709442139,-0.08571481704711914,-0.06219196319580078
1667255028449596200,0.48059619140625,-0.4555797576904297,0.11375284194946289,0.23779773712158203
1667255028454555000,0.485554931640625,-0.1124415397644043,0.2292851209640503,0.4708061218261719
1667255028459513300,0.490513427734375,0.2953603267669678,0.25338947772979736,0.6025714874267578
1667255028464472000,0.49547216796875,0.74342942237854,0.2567732334136963,0.636897087097168
1667255028469430500,0.500430419921875,1.2051455974578857,0.22207391262054443,0.5774784088134766
1667255028474389200,0.50538916015625,1.571662187576294,0.1299886703491211,0.48932933807373047
1667255028479347700,0.51034765625,1.7610995769500732,0.008678317070007324,0.382049560546875
1667255028484306400,0.515306396484375,1.8222160339355469,-0.10225951671600342,0.28033924102783203
1667255028489265000,0.520264892578125,1.829770565032959,-0.17465734481811523,0.19674968719482422
1667255028494223600,0.5252236328125,1.796428918838501,-0.17483627796173096,0.13538837432861328
1667255028499182300,0.530182373046875,1.7737431526184082,-0.18442153930664062,0.12406158447265625
1667255028504140800,0.535140869140625,1.866692304611206,-0.18698179721832275,0.054271697998046875
1667255028509099500,0.540099609375,1.9532341957092285,-0.24550259113311768,-0.09502124786376953
1667255028514058000,0.54505810546875,2.0141565799713135,-0.3274153470993042,-0.2735567092895508
1667255028519016700,0.5500166015625,1.9837746620178223,-0.35173094272613525,-0.4554910659790039
1667255028523975200,0.55497509765625,1.8845953941345215,-0.39236366748809814,-0.6175546646118164
1667255028528934000,0.559933837890625,1.783918857574463,-0.46212267875671387,-0.7639303207397461
1667255028533892400,0.564892333984375,1.6989223957061768,-0.5498391389846802,-0.8523073196411133
1667255028538851000,0.56985107421875,1.730250358581543,-0.5994629859924316,-0.909332275390625
1667255028543809500,0.5748095703125,1.7795498371124268,-0.5886871218681335,-0.9447393417358398
1667255028548768300,0.579768310546875,1.816495418548584,-0.5124813318252563,-0.9146337509155273
1667255028553726700,0.584726806640625,1.8705451488494873,-0.35787200927734375,-0.770477294921875
1667255028558685400,0.589685546875,1.940044641494751,-0.14649629592895508,-0.5162973403930664
1667255028563644200,0.59464404296875,1.9064414501190186,0.11479389667510986,-0.15862464904785156
1667255028568602600,0.5996025390625,1.889841079711914,0.3460007905960083,0.14089679718017578
1667255028573561300,0.604561279296875,1.880272388458252,0.46680212020874023,0.3997955322265625
1667255028578519800,0.609519775390625,1.8049063682556152,0.49849629402160645,0.5962762832641602
1667255028583478500,0.614478515625,1.6998989582061768,0.5535479784011841,0.7050285339355469
1667255028588437000,0.61943701171875,1.4371819496154785,0.5667109489440918,0.8027076721191406
1667255028593395700,0.624395751953125,1.0463719367980957,0.5753577947616577,0.894129753112793
1667255028598354200,0.629354248046875,0.6082580089569092,0.5973050594329834,0.9154863357543945
1667255028603313000,0.63431298828125,0.19913268089294434,0.5979965925216675,0.8747262954711914
1667255028608271600,0.639271728515625,-0.20431733131408691,0.5611392259597778,0.7902202606201172
1667255028613230000,0.64422998046875,-0.5496656894683838,0.461300253868103,0.6431875228881836
1667255028618188800,0.649188720703125,-0.8774445056915283,0.36608362197875977,0.48705482482910156
1667255028623147300,0.654147216796875,-1.1235034465789795,0.268873929977417,0.30840206146240234
1667255028628106000,0.65910595703125,-1.1781092882156372,0.1509096622467041,0.0797739028930664
1667255028633064400,0.664064453125,-1.1039447784423828,0.007810711860656738,-0.1713275909423828
1667255028638023200,0.669023193359375,-0.9192250967025757,-0.15748846530914307,-0.501917839050293
1667255028642981600,0.673981689453125,-0.8031072616577148,-0.2944056987762451,-0.8194122314453125
1667255028647940400,0.6789404296875,-0.7341763973236084,-0.3849818706512451,-1.128026008605957
1667255028652898800,0.68389892578125,-0.5924633741378784,-0.4744570255279541,-1.3284177780151367
1667255028657857500,0.688857421875,-0.39459455013275146,-0.5001479387283325,-1.4298648834228516
1667255028662816300,0.693816162109375,-0.30016326904296875,-0.42735016345977783,-1.4294919967651367
1667255028667774700,0.698774658203125,-0.3837944269180298,-0.30972838401794434,-1.3206920623779297
1667255028672733400,0.7037333984375,-0.7341985702514648,-0.19905531406402588,-1.1550226211547852
1667255028677692000,0.70869189453125,-1.3384193181991577,-0.11874473094940186,-1.0099115371704102
1667255028682650600,0.713650634765625,-2.0553057193756104,-0.05286526679992676,-0.9230442047119141
1667255028687609000,0.718609130859375,-2.6239516735076904,0.050998568534851074,-0.8509664535522461
1667255028692567800,0.72356787109375,-2.922224998474121,0.11494338512420654,-0.7138595581054688
1667255028697526300,0.7285263671875,-2.9583849906921387,0.1531742811203003,-0.5301475524902344
1667255028702485000,0.733485107421875,-2.7542059421539307,0.12295866012573242,-0.3266181945800781
1667255028707443700,0.738443603515625,-2.2913103103637695,0.15857362747192383,-0.2009716033935547
1667255028712402200,0.743402099609375,-1.5554192066192627,0.23137354850769043,-0.11315441131591797
1667255028717361000,0.74836083984375,-0.6634266376495361,0.2940627336502075,-0.06132793426513672
1667255028722319400,0.7533193359375,0.16903901100158691,0.33110320568084717,0.010828971862792969
1667255028727278000,0.758278076171875,0.8098504543304443,0.32243871688842773,0.06299400329589844
1667255028732236500,0.763236572265625,1.298154354095459,0.2839728593826294,0.10963153839111328
1667255028737195300,0.7681953125,1.6292953491210938,0.19101107120513916,0.14718151092529297
1667255028742153700,0.77315380859375,1.8177659511566162,0.1555168628692627,0.19468021392822266
1667255028747112400,0.778112548828125,1.8818001747131348,0.13652241230010986,0.25432777404785156
1667255028752071200,0.7830712890625,1.8445074558258057,0.12190532684326172,0.3044605255126953
1667255028757029600,0.788029541015625,1.6872193813323975,0.10447001457214355,0.33660221099853516
1667255028761988400,0.79298828125,1.390305757522583,0.04868197441101074,0.3208732604980469
1667255028766946800,0.79794677734375,0.9720683097839355,-0.022240400314331055,0.2454061508178711
1667255028771905500,0.802905517578125,0.4861011505126953,-0.20848166942596436,0.08294391632080078
1667255028776864000,0.807864013671875,-0.05217170715332031,-0.4217696189880371,-0.14017963409423828
1667255028781822700,0.81282275390625,-0.5496823787689209,-0.5376192331314087,-0.33612918853759766
1667255028786781200,0.81778125,-0.8562028408050537,-0.5622731447219849,-0.4685354232788086
1667255028791740000,0.822739990234375,-0.8732583522796631,-0.5712257623672485,-0.585322380065918
1667255028796698600,0.82769873046875,-0.6686772108078003,-0.5604301691055298,-0.631622314453125
1667255028801657000,0.832656982421875,-0.35869717597961426,-0.5077148675918579,-0.6302022933959961
1667255028806615800,0.83761572265625,-0.057918548583984375,-0.44098663330078125,-0.6024036407470703
1667255028811574300,0.84257421875,0.2836430072784424,-0.3131502866744995,-0.5916414260864258
1667255028816533000,0.847532958984375,0.5659143924713135,-0.2208690643310547,-0.5234584808349609
1667255028821491500,0.852491455078125,0.6604948043823242,-0.19227266311645508,-0.3585958480834961
1667255028826450200,0.8574501953125,0.7187604904174805,-0.11820447444915771,-0.276763916015625
1667255028831408600,0.86240869140625,0.7133035659790039,-0.04505729675292969,-0.29257774353027344
1667255028836367400,0.867367431640625,0.6105549335479736,-0.01170039176940918,-0.2911796569824219
1667255028841326000,0.872326171875,0.36084437370300293,-0.02002561092376709,-0.29672908782958984
1667255028846284500,0.877284423828125,-0.05349230766296387,-0.06518280506134033,-0.26915836334228516
1667255028851243300,0.8822431640625,-0.372100830078125,-0.05338013172149658,-0.1744527816772461
1667255028856201700,0.88720166015625,-0.5125601291656494,0.028957128524780273,-0.058376312255859375
1667255028861160400,0.892160400390625,-0.4726736545562744,0.1051487922668457,0.022848129272460938
1667255028866119000,0.897118896484375,-0.29534435272216797,0.16070854663848877,0.06088733673095703
1667255028871077600,0.90207763671875,-0.05179476737976074,0.1420196294784546,0.07956600189208984
1667255028876036000,0.9070361328125,0.20671486854553223,0.12654924392700195,0.057564735412597656
1667255028880994800,0.911994873046875,0.5763044357299805,0.11363863945007324,0.06307506561279297
1667255028885953300,0.916953369140625,0.876274585723877,0.06399726867675781,0.06718826293945312
1667255028890912000,0.921912109375,1.0411138534545898,-0.013596296310424805,-0.005286216735839844
1667255028895870700,0.92687060546875,1.1442773342132568,-0.06157207489013672,-0.12903499603271484
1667255028900829200,0.9318291015625,1.1465318202972412,-0.08488094806671143,-0.20256614685058594
1667255028905788000,0.936787841796875,1.0620315074920654,-0.07414472103118896,-0.2438201904296875
1667255028910746400,0.941746337890625,0.8373496532440186,-0.1292494535446167,-0.2588653564453125
1667255028915705000,0.946705078125,0.48499178886413574,-0.17319929599761963,-0.2716941833496094
1667255028920663600,0.95166357421875,0.13312697410583496,-0.23066222667694092,-0.30504894256591797
1667255028925622300,0.956622314453125,-0.12038040161132812,-0.3163563013076782,-0.3638010025024414
1667255028930580700,0.961580810546875,-0.2780327796936035,-0.3287627696990967,-0.40039634704589844
1667255028935539500,0.96653955078125,-0.3365144729614258,-0.2590571641921997,-0.37213993072509766
1667255028940498200,0.971498291015625,-0.31444287300109863,-0.1548142433166504,-0.27442359924316406
1667255028945456600,0.97645654296875,-0.2316734790802002,-0.09410309791564941,-0.1359577178955078
1667255028950415400,0.981415283203125,-0.14586448669433594,-0.049646735191345215,-0.022275924682617188
1667255028955373800,0.986373779296875,-0.01716327667236328,-0.0022101402282714844,0.019313812255859375
1667255028960332500,0.99133251953125,0.1522054672241211,0.04948914051055908,0.015598297119140625
1667255028965291000,0.996291015625,0.32379794120788574,0.07573652267456055,-0.02327728271484375
1667255028970249700,1.001249755859375,0.4606175422668457,0.0937502384185791,-0.13014984130859375
1667255028975208200,1.006208251953125,0.45439791679382324,0.05868828296661377,-0.1452045440673828
1667255028980167000,1.0111669921875,0.3367297649383545,-0.010950922966003418,-0.14393329620361328
1667255028985125600,1.016125732421875,0.20091891288757324,-0.08753776550292969,-0.16329002380371094
1667255028990084000,1.021083984375,0.012717723846435547,-0.07114696502685547,-0.14487648010253906
1667255028995042800,1.026042724609375,-0.21887612342834473,-0.008588314056396484,-0.12233638763427734
1667255029000001300,1.031001220703125,-0.4298088550567627,0.05581772327423096,-0.09113216400146484
1667255029004960000,1.0359599609375,-0.5798795223236084,0.09189403057098389,-0.007498741149902344
1667255029009918500,1.04091845703125,-0.6326303482055664,0.16368889808654785,0.12686443328857422
1667255029014877200,1.045877197265625,-0.5767815113067627,0.19686830043792725,0.24834823608398438
1667255029019835600,1.050835693359375,-0.4453752040863037,0.2602689266204834,0.3318290710449219
1667255029024794400,1.05579443359375,-0.2582099437713623,0.33286619186401367,0.4062957763671875
1667255029029753000,1.060753173828125,-0.05379033088684082,0.35474586486816406,0.4742708206176758
1667255029034711600,1.065711669921875,0.002599954605102539,0.3097575902938843,0.5558900833129883
1667255029039670300,1.070670166015625,0.03497910499572754,0.3246033191680908,0.5666866302490234
1667255029044628700,1.075628662109375,0.11616349220275879,0.32788360118865967,0.4846773147583008
1667255029049587500,1.08058740234375,0.14184188842773438,0.23312437534332275,0.38897705078125
1667255029054546000,1.0855458984375,0.07337188720703125,0.09697926044464111,0.33187294006347656
1667255029059504600,1.090504638671875,-0.03963112831115723,-0.001618027687072754,0.24159908294677734
1667255029064463400,1.09546337890625,-0.169264554977417,-0.016296029090881348,0.14914512634277344
1667255029069421800,1.100421875,-0.3091588020324707,-0.022405028343200684,0.08654022216796875
1667255029074380500,1.105380615234375,-0.44709014892578125,-0.004590868949890137,0.039279937744140625
1667255029079339000,1.110339111328125,-0.4984865188598633,0.011789083480834961,-0.008165359497070312
1667255029084297700,1.115297607421875,-0.5027341842651367,0.04926764965057373,0.004851341247558594
1667255029089256200,1.120256103515625,-0.4758462905883789,0.09806203842163086,0.025778770446777344
1667255029094215000,1.12521484375,-0.3804481029510498,0.15447211265563965,-0.0035657882690429688
1667255029099173400,1.13017333984375,-0.29038333892822266,0.18264567852020264,-0.04930305480957031
1667255029104132000,1.135132080078125,-0.2749152183532715,0.14013671875,-0.06727886199951172
1667255029109090800,1.1400908203125,-0.4060077667236328,0.029024958610534668,-0.09713459014892578
1667255029114049300,1.14504931640625,-0.5557940006256104,-0.008241772651672363,-0.1483449935913086
1667255029119008000,1.150008056640625,-0.6353600025177002,-0.005239367485046387,-0.1742267608642578
1667255029123966500,1.154966552734375,-0.7152869701385498,-0.020464658737182617,-0.15585041046142578
1667255029128925200,1.15992529296875,-0.7380907535552979,-0.02178323268890381,-0.0720529556274414
1667255029133883600,1.164883544921875,-0.6942715644836426,0.03451037406921387,0.00896453857421875
1667255029138842400,1.16984228515625,-0.5626387596130371,0.0738973617553711,0.10633373260498047
1667255029143800800,1.17480078125,-0.37433600425720215,0.08888208866119385,0.21046924591064453
1667255029148759600,1.179759521484375,-0.16606593132019043,0.08655786514282227,0.2878694534301758
1667255029153718300,1.18471826171875,0.06803321838378906,0.1194390058517456,0.29100799560546875
1667255029158676700,1.1896767578125,0.2897059917449951,0.13360178470611572,0.3036317825317383
1667255029163635500,1.194635498046875,0.48413920402526855,0.12313473224639893,0.35329151153564453
1667255029168594000,1.199593994140625,0.6093728542327881,0.09158182144165039,0.34945011138916016
1667255029173552600,1.204552734375,0.5778875350952148,0.04651379585266113,0.32314205169677734
1667255029178511000,1.209510986328125,0.4504587650299072,0.028769493103027344,0.2885313034057617
1667255029183469800,1.2144697265625,0.31793999671936035,0.022952675819396973,0.19441604614257812
1667255029188428300,1.21942822265625,0.3060603141784668,-0.007952332496643066,0.09365653991699219
1667255029193387000,1.224386962890625,0.26673221588134766,-0.050481438636779785,0.07196331024169922
1667255029198345700,1.229345703125,0.2052628993988037,-0.06241118907928467,0.016869544982910156
1667255029203304200,1.23430419921875,0.1535789966583252,-0.03489351272583008,-0.03179359436035156
1667255029208263000,1.239262939453125,0.13638734817504883,0.027965545654296875,-0.05976295471191406
1667255029213221400,1.244221435546875,0.12036371231079102,0.05100560188293457,-0.06250190734863281
1667255029218180000,1.24918017578125,0.08648681640625,0.047576308250427246,-0.054442405700683594
1667255029223138600,1.254138671875,0.09755992889404297,0.08917737007141113,-0.10087108612060547
1667255029228097300,1.25909716796875,0.055126190185546875,0.10192501544952393,-0.18842124938964844
1667255029233055700,1.2640556640625,-0.048497915267944336,0.07786524295806885,-0.22903156280517578
1667255029238014500,1.269014404296875,-0.18305563926696777,0.03518497943878174,-0.26703548431396484
1667255029242973200,1.27397314453125,-0.32511401176452637,-0.011470198631286621,-0.36163997650146484
1667255029247931600,1.278931640625,-0.47329044342041016,-0.08904218673706055,-0.43535900115966797
1667255029252890400,1.283890380859375,-0.6368796825408936,-0.15060222148895264,-0.4801826477050781
1667255029257848800,1.288848876953125,-0.7015566825866699,-0.18789708614349365,-0.5344333648681641
1667255029262807600,1.2938076171875,-0.7000298500061035,-0.16318833827972412,-0.5363855361938477
1667255029267766000,1.29876611328125,-0.612647294998169,-0.11401724815368652,-0.4781322479248047
1667255029272724700,1.303724853515625,-0.46149587631225586,-0.09907257556915283,-0.37197017669677734
1667255029277683500,1.308683349609375,-0.2683892250061035,-0.05651557445526123,-0.31795787811279297
1667255029282642000,1.313641845703125,-0.07705545425415039,-0.01999831199645996,-0.2825765609741211
1667255029287600600,1.3186005859375,0.0928652286529541,0.0006448030471801758,-0.21712398529052734
1667255029292559000,1.32355908203125,0.2736208438873291,0.033663034439086914,-0.11942863464355469
1667255029297517800,1.328517822265625,0.4758884906768799,0.0489581823348999,-0.020572662353515625
1667255029302476300,1.333476318359375,0.5935719013214111,0.0726701021194458,0.05108642578125
1667255029307435000,1.33843505859375,0.62451171875,0.08473396301269531,0.13268661499023438
1667255029312393700,1.343393798828125,0.5771842002868652,0.10208117961883545,0.19225311279296875
1667255029317352200,1.348352294921875,0.4661128520965576,0.06434309482574463,0.21819305419921875
1667255029322311000,1.353310791015625,0.31151604652404785,0.03509402275085449,0.22158432006835938
1667255029327269400,1.358269287109375,0.1644458770751953,0.033075809478759766,0.1861438751220703
1667255029332228000,1.36322802734375,0.01414179801940918,0.07436692714691162,0.15615367889404297
1667255029337186600,1.3681865234375,-0.16388463973999023,0.11464190483093262,0.14093875885009766
1667255029342145300,1.373145263671875,-0.3186304569244385,0.07596147060394287,0.14474868774414062
1667255029347104000,1.37810400390625,-0.35158753395080566,-0.010895133018493652,0.10794734954833984
1667255029352062500,1.3830625,-0.220200777053833,-0.05041205883026123,-0.010584831237792969
1667255029357021200,1.388021240234375,-0.01620793342590332,-0.06302535533905029,-0.09266185760498047
1667255029361979600,1.392979736328125,0.1751854419708252,-0.04079127311706543,-0.12658309936523438
1667255029366938400,1.3979384765625,0.2576944828033447,-0.03898942470550537,-0.14936256408691406
1667255029371896800,1.402896728515625,0.24620676040649414,-0.07040274143218994,-0.1752634048461914
1667255029376855600,1.40785546875,0.11073589324951172,-0.0809093713760376,-0.2269124984741211
1667255029381814000,1.41281396484375,-0.11685967445373535,-0.12471187114715576,-0.2994413375854492
1667255029386772700,1.417772705078125,-0.3103938102722168,-0.14679479598999023,-0.3403921127319336
1667255029391731200,1.422731201171875,-0.4498934745788574,-0.17214691638946533,-0.3275308609008789
1667255029396690000,1.42768994140625,-0.566274881362915,-0.16536462306976318,-0.2483386993408203
1667255029401648600,1.432648681640625,-0.5586347579956055,-0.1035844087600708,-0.14605236053466797
1667255029406607000,1.437607177734375,-0.4773845672607422,-0.007937192916870117,-0.047020912170410156
1667255029411565800,1.44256591796875,-0.36423158645629883,0.04515719413757324,0.03206920623779297
1667255029416524300,1.447524169921875,-0.1613936424255371,0.07598221302032471,0.09738826751708984
1667255029421483000,1.45248291015625,0.08625459671020508,0.0717763900756836,0.15503787994384766
1667255029426441500,1.45744140625,0.263045072555542,0.05548381805419922,0.16360187530517578
1667255029431400200,1.462400146484375,0.36612701416015625,0.05305981636047363,0.19587230682373047
1667255029436359000,1.46735888671875,0.3596227169036865,0.0701667070388794,0.2753105163574219
1667255029441317400,1.4723173828125,0.3427700996398926,0.11490726470947266,0.3481912612915039
1667255029446276000,1.477276123046875,0.29404139518737793,0.15138566493988037,0.3683910369873047
1667255029451234600,1.482234619140625,0.23476219177246094,0.15827405452728271,0.40289306640625
1667255029456193300,1.487193359375,0.14481019973754883,0.15368521213531494,0.38988494873046875
1667255029461151700,1.49215185546875,0.033960819244384766,0.09166479110717773,0.3700542449951172
1667255029466110500,1.4971103515625,-0.09163570404052734,0.042839646339416504,0.35527896881103516
1667255029471069200,1.502069091796875,-0.20351862907409668,0.032231688499450684,0.31586456298828125
1667255029476027600,1.507027587890625,-0.28040194511413574,0.026512622833251953,0.2851829528808594
1667255029480986400,1.511986328125,-0.3531613349914551,0.008878350257873535,0.23463153839111328
1667255029485944800,1.51694482421875,-0.3524191379547119,-0.02045142650604248,0.24165821075439453
1667255029490903600,1.521903564453125,-0.28244900703430176,-0.0977485179901123,0.157440185546875
1667255029495862000,1.526862060546875,-0.22231149673461914,-0.1664259433746338,0.030175209045410156
1667255029500820700,1.53182080078125,-0.17756986618041992,-0.20864439010620117,-0.06395816802978516
1667255029505779500,1.536779541015625,-0.18922996520996094,-0.21422851085662842,-0.10632514953613281
1667255029510738000,1.541738037109375,-0.20327544212341309,-0.170670747756958,-0.1222829818725586
1667255029515696600,1.546696533203125,-0.20620346069335938,-0.10259294509887695,-0.08955955505371094
1667255029520655000,1.551655029296875,-0.24608731269836426,-0.022188901901245117,-0.021806716918945312
1667255029525613800,1.55661376953125,-0.27615880966186523,0.035923123359680176,0.02132415771484375
1667255029530572300,1.561572265625,-0.24453306198120117,0.05279219150543213,0.01996898651123047
1667255029535531000,1.566531005859375,-0.20390939712524414,0.061945319175720215,0.04568767547607422
1667255029540489700,1.57148974609375,-0.10951375961303711,0.037386536598205566,0.04967689514160156
1667255029545448200,1.5764482421875,0.03063344955444336,0.0007632970809936523,0.054808616638183594
1667255029550407000,1.581406982421875,0.19228577613830566,-0.09149801731109619,0.03853130340576172
1667255029555365400,1.586365478515625,0.3122398853302002,-0.12967407703399658,0.023591995239257812
1667255029560324000,1.591323974609375,0.3744242191314697,-0.15077602863311768,-0.026900291442871094
1667255029565282600,1.596282470703125,0.4150815010070801,-0.1798875331878662,-0.04862785339355469
1667255029570241300,1.6012412109375,0.46174168586730957,-0.19120609760284424,-0.04890918731689453
1667255029575199700,1.60619970703125,0.4956698417663574,-0.1648639440536499,-0.016121864318847656
1667255029580158500,1.611158447265625,0.4660608768463135,-0.1332414150238037,-0.0063343048095703125
1667255029585117000,1.616116943359375,0.40071654319763184,-0.1151876449584961,-0.008704185485839844
1667255029590075600,1.62107568359375,0.3198578357696533,-0.1316593885421753,-0.03970813751220703
1667255029595034400,1.626034423828125,0.21355843544006348,-0.12984812259674072,-0.04796886444091797
1667255029599992800,1.630992919921875,0.13852620124816895,-0.13482379913330078,-0.10827445983886719
1667255029604951600,1.63595166015625,0.05796957015991211,-0.14071667194366455,-0.12177467346191406
1667255029609910000,1.640909912109375,-0.02998065948486328,-0.14390408992767334,-0.09969425201416016
1667255029614868700,1.64586865234375,-0.07661128044128418,-0.13481903076171875,-0.09573745727539062
1667255029619827500,1.650827392578125,-0.08601880073547363,-0.07461678981781006,-0.14762210845947266
1667255029624786000,1.655785888671875,-0.11057567596435547,-0.06786596775054932,-0.19802284240722656
1667255029629744600,1.66074462890625,-0.1835176944732666,-0.09764564037322998,-0.19705581665039062
1667255029634703000,1.665703125,-0.23705530166625977,-0.14607477188110352,-0.18062400817871094
1667255029639661800,1.670661865234375,-0.28905272483825684,-0.16915130615234375,-0.1631155014038086
1667255029644620300,1.675620361328125,-0.32884955406188965,-0.18001794815063477,-0.13506698608398438
1667255029649579000,1.6805791015625,-0.3465604782104492,-0.16208839416503906,-0.12958431243896484
1667255029654537700,1.685537841796875,-0.36524200439453125,-0.09643983840942383,-0.12979793548583984
1667255029659496200,1.69049609375,-0.4284322261810303,-0.04406571388244629,-0.08118152618408203
1667255029664455000,1.695454833984375,-0.520160436630249,-0.02628457546234131,0.005137443542480469
1667255029669413400,1.700413330078125,-0.49894142150878906,-0.00395512580871582,0.08379459381103516
1667255029674372000,1.7053720703125,-0.4226980209350586,0.01410830020904541,0.14900970458984375
1667255029679330600,1.71033056640625,-0.23496770858764648,0.05170738697052002,0.2068309783935547
1667255029684289300,1.715289306640625,-0.10579204559326172,0.03147315979003906,0.22750282287597656
1667255029689248000,1.720248046875,0.0000019073486328125,0.010977983474731445,0.20291996002197266
1667255029694206500,1.72520654296875,0.0777583122253418,-0.02630770206451416,0.11923885345458984
1667255029699165200,1.730165283203125,0.08510446548461914,-0.08968687057495117,0.05166053771972656
1667255029704123600,1.73512353515625,0.04164886474609375,-0.11495769023895264,-0.012999534606933594
1667255029709082400,1.740082275390625,-0.03341484069824219,-0.12123680114746094,-0.09015655517578125
1667255029714040800,1.745040771484375,-0.12245869636535645,-0.1535487174987793,-0.20927143096923828
1667255029718999600,1.74999951171875,-0.16385769844055176,-0.23159193992614746,-0.3023548126220703
1667255029723958300,1.754958251953125,-0.24416375160217285,-0.269490122795105,-0.35079479217529297
1667255029728916700,1.759916748046875,-0.281219482421875,-0.27687323093414307,-0.44159507751464844
1667255029733875500,1.76487548828125,-0.27190232276916504,-0.30817413330078125,-0.5910615921020508
1667255029738834000,1.769833984375,-0.2476656436920166,-0.31348156929016113,-0.7345466613769531
1667255029743792600,1.774792724609375,-0.20961952209472656,-0.21170902252197266,-0.7996921539306641
1667255029748751000,1.779751220703125,-0.18001317977905273,-0.12050724029541016,-0.8441410064697266
1667255029753709800,1.784709716796875,-0.18219566345214844,-0.0755535364151001,-0.9108419418334961
1667255029758668300,1.789668212890625,-0.1844921112060547,-0.06763434410095215,-1.0091629028320312
1667255029763627000,1.794626953125,-0.28707027435302734,-0.06919586658477783,-1.1168603897094727
1667255029768585700,1.799585693359375,-0.448009729385376,-0.10229611396789551,-1.3021416664123535
1667255029773544200,1.804544189453125,-0.5724117755889893,-0.10595846176147461,-1.504443645477295
1667255029778503000,1.8095029296875,-0.6874501705169678,-0.10509693622589111,-1.7525858879089355
1667255029783461400,1.81446142578125,-0.770371675491333,-0.14854836463928223,-1.9915962219238281
1667255029788420000,1.819420166015625,-0.5997910499572754,-0.17250823974609375,-2.2082223892211914
1667255029793378600,1.824378662109375,-0.2822730541229248,-0.17615151405334473,-2.45790958404541
1667255029798337300,1.829337158203125,-0.07762598991394043,-0.19849371910095215,-2.7881412506103516
1667255029803296000,1.8342958984375,-0.0048983097076416016,-0.3185725212097168,-3.1202197074890137
1667255029808254500,1.83925439453125,0.11116266250610352,-0.4416232109069824,-3.3851518630981445
1667255029813213200,1.844213134765625,0.3273735046386719,-0.5773659944534302,-3.6673288345336914
1667255029818171600,1.849171630859375,1.500246524810791,-0.8560655117034912,-4.242744445800781
1667255029823130400,1.85413037109375,2.338184356689453,-0.9153554439544678,-4.888477325439453
1667255029828088800,1.8590888671875,1.5439069271087646,-0.7794886231422424,-5.8753533363342285
1667255029833047600,1.864047607421875,-0.3372001647949219,-0.17045140266418457,-6.890655517578125
1667255029838006300,1.86900634765625,-0.3922395706176758,-0.17677521705627441,-7.252367973327637
1667255029842964700,1.87396484375,-0.19691765308380127,-0.5097188949584961,-7.643752098083496
1667255029847923500,1.87892333984375,0.032269954681396484,-0.7730193734169006,-7.858816146850586
1667255029852882000,1.8838818359375,0.286395788192749,-0.9332541227340698,-7.978804111480713
1667255029857840600,1.888840576171875,0.5512678623199463,-1.080216646194458,-8.03615665435791
1667255029862799400,1.89379931640625,0.9050422310829163,-1.1781799793243408,-8.061147689819336
1667255029867757800,1.8987578125,1.2795931100845337,-1.2309311628341675,-8.04370403289795
1667255029872716500,1.903716552734375,1.6764410734176636,-1.2580448389053345,-7.981101036071777
1667255029877675000,1.908675048828125,2.2040634155273438,-1.2338273525238037,-7.869416236877441
1667255029882633700,1.9136337890625,2.8277342319488525,-1.17153799533844,-7.7265472412109375
1667255029887592200,1.91859228515625,3.478271007537842,-1.1128954887390137,-7.515697479248047
1667255029892551000,1.923551025390625,4.12967586517334,-1.0295952558517456,-7.319788932800293
1667255029897509400,1.92850927734375,4.736795425415039,-0.9754263758659363,-7.129859924316406
1667255029902468000,1.933468017578125,5.296269416809082,-0.9289034605026245,-6.93593692779541
1667255029907426800,1.9384267578125,5.788243770599365,-0.8756515979766846,-6.773552894592285
1667255029912385300,1.94338525390625,6.234655857086182,-0.8324915766716003,-6.628109455108643
1667255029917344000,1.948343994140625,6.632595062255859,-0.7778780460357666,-6.518505573272705
1667255029922302500,1.953302490234375,6.932994365692139,-0.739330530166626,-6.446831703186035
1667255029927261200,1.95826123046875,7.1516523361206055,-0.7024842500686646,-6.3757123947143555
1667255029932219600,1.9632197265625,7.290427207946777,-0.6722574830055237,-6.351230144500732
1667255029937178400,1.968178466796875,7.351271152496338,-0.62236487865448,-6.361953258514404
1667255029942137000,1.97313720703125,7.350838661193848,-0.5720069408416748,-6.37358283996582
1667255029947095600,1.978095458984375,7.313005447387695,-0.5317970514297485,-6.397099018096924
1667255029952054300,1.98305419921875,7.203225612640381,-0.47798824310302734,-6.432506561279297
1667255029957012700,1.9880126953125,7.098021984100342,-0.4535231292247772,-6.43311882019043
1667255029961971500,1.992971435546875,7.0235419273376465,-0.39523881673812866,-6.430962085723877
1667255029966930000,1.997929931640625,6.981911659240723,-0.34248626232147217,-6.370723724365234
1667255029971888600,2.002888671875,7.007460117340088,-0.30000221729278564,-6.262685775756836
1667255029976847400,2.007847412109375,7.061535358428955,-0.2654118835926056,-6.096644878387451
1667255029981805800,2.012805908203125,7.172729969024658,-0.22441264986991882,-5.892031669616699
1667255029986764500,2.0177646484375,7.274168014526367,-0.18051257729530334,-5.6584978103637695
1667255029991723000,2.022722900390625,7.35577392578125,-0.1360839456319809,-5.4090471267700195
1667255029996681700,2.027681640625,7.417508602142334,-0.09708282351493835,-5.146970748901367
1667255030001640400,2.032640380859375,7.431153297424316,-0.05039753019809723,-4.888627529144287
1667255030006599000,2.037598876953125,7.42393159866333,0.0016506314277648926,-4.637231826782227
1667255030011557600,2.0425576171875,7.401984214782715,0.04829603433609009,-4.347192764282227
1667255030016516000,2.04751611328125,7.369194507598877,0.09664437174797058,-4.071099281311035
1667255030021474800,2.052474853515625,7.352432727813721,0.14073693752288818,-3.7900819778442383
1667255030026433300,2.057433349609375,7.3679962158203125,0.1625870168209076,-3.472536087036133
1667255030031392000,2.06239208984375,7.400313377380371,0.15494930744171143,-3.163771152496338
1667255030036350700,2.067350830078125,7.392638206481934,0.126031756401062,-2.873757839202881
1667255030041309200,2.07230908203125,7.313814640045166,0.10417419672012329,-2.652510643005371
1667255030046268000,2.077267822265625,7.1533098220825195,0.04968059062957764,-2.5076675415039062
1667255030051226400,2.082226318359375,6.881303310394287,-0.004277586936950684,-2.449845790863037
1667255030056185000,2.08718505859375,6.495275497436523,-0.047277212142944336,-2.4698901176452637
1667255030061143600,2.0921435546875,6.025008678436279,-0.08687686920166016,-2.576669692993164
1667255030066102300,2.097102294921875,5.489544868469238,-0.10071992874145508,-2.7633514404296875
1667255030071060700,2.102060791015625,4.898250579833984,-0.09859633445739746,-3.0035362243652344
1667255030076019500,2.10701953125,4.290616512298584,-0.073630690574646,-3.2656073570251465
1667255030080978200,2.111978271484375,3.7188878059387207,-0.027220487594604492,-3.5260024070739746
1667255030085936600,2.1169365234375,3.2670974731445312,0.00829923152923584,-3.7201905250549316
1667255030090895400,2.121895263671875,2.987943649291992,0.049457430839538574,-3.858652114868164
1667255030095853800,2.126853759765625,2.9255282878875732,0.04471290111541748,-3.906123638153076
1667255030100812500,2.1318125,3.103638172149658,0.024988293647766113,-3.842686176300049
1667255030105771300,2.136771240234375,3.5314860343933105,-0.031423211097717285,-3.6660032272338867
1667255030110729700,2.141729736328125,4.114049911499023,-0.11392843723297119,-3.4329800605773926
1667255030115688400,2.1466884765625,4.794062614440918,-0.21791088581085205,-3.1365861892700195
1667255030120647000,2.15164697265625,5.496969223022461,-0.32073020935058594,-2.8433003425598145
1667255030125605600,2.156605712890625,6.257684707641602,-0.4332195520401001,-2.5475497245788574
1667255030130564000,2.161564208984375,7.072495937347412,-0.5543080568313599,-2.1959433555603027
1667255030135522800,2.166522705078125,7.91703987121582,-0.6445270776748657,-1.8449501991271973
1667255030140481500,2.1714814453125,8.743857383728027,-0.7109558582305908,-1.5067024230957031
1667255030145440000,2.17643994140625,9.573101043701172,-0.7702213525772095,-1.161078929901123
1667255030150398700,2.181398681640625,10.430428504943848,-0.8282490968704224,-0.7964339256286621
1667255030155357200,2.186357177734375,11.254934310913086,-0.8837474584579468,-0.4643516540527344
1667255030160316000,2.19131591796875,12.05630874633789,-0.9593106508255005,-0.10421323776245117
1667255030165274600,2.196274658203125,12.771780967712402,-1.0585379600524902,0.2393035888671875
1667255030170233000,2.201233154296875,13.407632827758789,-1.1492369174957275,0.5537509918212891
1667255030175191800,2.20619189453125,13.912881851196289,-1.2696805000305176,0.8911218643188477
1667255030180150300,2.211150390625,14.27261734008789,-1.372172236442566,1.206639289855957
1667255030185109000,2.21610888671875,14.469889640808105,-1.4808052778244019,1.5212998390197754
1667255030190067500,2.2210673828125,14.471430778503418,-1.5684094429016113,1.8500332832336426
1667255030195026200,2.226026123046875,14.272123336791992,-1.6292248964309692,2.1668596267700195
1667255030199984600,2.230984619140625,13.880480766296387,-1.6979182958602905,2.479950428009033
1667255030204943400,2.235943359375,13.320636749267578,-1.7436437606811523,2.773947238922119
1667255030209902000,2.240902099609375,12.631998062133789,-1.7689417600631714,3.03250789642334
1667255030214860500,2.245860595703125,11.90209674835205,-1.7606470584869385,3.2847914695739746
1667255030219819300,2.2508193359375,11.118231773376465,-1.7761056423187256,3.480942726135254
1667255030224777700,2.25577783203125,10.346158027648926,-1.7673296928405762,3.60587215423584
1667255030229736400,2.260736328125,9.572175025939941,-1.7533801794052124,3.6767492294311523
1667255030234695200,2.265695068359375,8.861421585083008,-1.7280418872833252,3.660015106201172
1667255030239653600,2.270653564453125,8.170378684997559,-1.7005301713943481,3.5755276679992676
1667255030244612400,2.2756123046875,7.506928443908691,-1.6537110805511475,3.397826671600342
1667255030249570800,2.28057080078125,6.89678430557251,-1.5679340362548828,3.1773715019226074
1667255030254529500,2.285529541015625,6.381165504455566,-1.4497112035751343,2.950057029724121
1667255030259488000,2.290488037109375,6.013210296630859,-1.2984380722045898,2.740105628967285
1667255030264446700,2.29544677734375,5.850846290588379,-1.157851219177246,2.5938758850097656
1667255030269405400,2.300405517578125,5.925705432891846,-1.039322853088379,2.530087471008301
1667255030274364000,2.305364013671875,6.220972061157227,-0.9496356844902039,2.5679383277893066
1667255030279322600,2.310322509765625,6.659809112548828,-0.8896942138671875,2.652646064758301
1667255030284281000,2.315281005859375,7.188263893127441,-0.8484418392181396,2.8088488578796387
1667255030289239800,2.32023974609375,7.751101970672607,-0.7982222437858582,2.9888830184936523
1667255030294198500,2.325198486328125,8.33975887298584,-0.7746824622154236,3.2121825218200684
1667255030299157000,2.330156982421875,8.968320846557617,-0.750163197517395,3.4444408416748047
1667255030304115700,2.33511572265625,9.623388290405273,-0.7173660397529602,3.719412326812744
1667255030309074200,2.34007421875,10.246334075927734,-0.6690669059753418,4.020411968231201
1667255030314033000,2.345032958984375,10.84939193725586,-0.649322509765625,4.332799911499023
1667255030318991400,2.349991455078125,11.371257781982422,-0.616182804107666,4.647413730621338
1667255030323950000,2.3549501953125,11.836185455322266,-0.5743156671524048,4.987917900085449
1667255030328908500,2.359908447265625,12.147490501403809,-0.5486119985580444,5.322247505187988
1667255030333867300,2.3648671875,12.356390953063965,-0.5318524837493896,5.628455638885498
1667255030338826000,2.369825927734375,12.395689964294434,-0.5299282073974609,5.913502216339111
1667255030343784400,2.374784423828125,12.26490592956543,-0.5223366022109985,6.160747051239014
1667255030348743200,2.3797431640625,11.939471244812012,-0.5304467082023621,6.373830318450928
1667255030353701600,2.38470166015625,11.45162582397461,-0.5228543281555176,6.535014629364014
1667255030358660400,2.389660400390625,10.8875150680542,-0.5004996657371521,6.689078330993652
1667255030363619000,2.394619140625,10.353137969970703,-0.4643341898918152,6.8447065353393555
1667255030368577500,2.39957763671875,9.904999732971191,-0.43931978940963745,7.061689853668213
1667255030373536300,2.404536376953125,9.570618629455566,-0.4337409734725952,7.289320945739746
1667255030378494700,2.40949462890625,9.276925086975098,-0.4595681428909302,7.520451545715332
1667255030383453400,2.414453369140625,8.949429512023926,-0.497701495885849,7.687715530395508
1667255030388412000,2.419411865234375,8.54079818725586,-0.5316342115402222,7.7783522605896
1667255030393370600,2.42437060546875,8.066454887390137,-0.580543041229248,7.771356582641602
1667255030398329300,2.429329345703125,7.545982360839844,-0.6290222406387329,7.686738014221191
1667255030403287800,2.434287841796875,6.976776123046875,-0.6638691425323486,7.507452964782715
1667255030408246500,2.43924658203125,6.3809099197387695,-0.6876310110092163,7.2963762283325195
1667255030413205000,2.444205078125,5.862480163574219,-0.7220043540000916,7.053238868713379
1667255030418163700,2.449163818359375,5.497793197631836,-0.7346891164779663,6.857834815979004
1667255030423122400,2.454122314453125,5.319967269897461,-0.7630652189254761,6.731459140777588
1667255030428081000,2.459080810546875,5.334550857543945,-0.7869633436203003,6.687215328216553
1667255030433039600,2.46403955078125,5.548322677612305,-0.817363977432251,6.73918342590332
1667255030437998000,2.468998046875,5.941798210144043,-0.8786646127700806,6.879638195037842
1667255030442956800,2.473956787109375,6.468081474304199,-0.9354093074798584,7.0452985763549805
1667255030447915300,2.478915283203125,7.079141616821289,-0.9939821362495422,7.279770374298096
1667255030452874000,2.4838740234375,7.684040069580078,-1.061926007270813,7.519368648529053
1667255030457832400,2.48883251953125,8.211068153381348,-1.124049186706543,7.7533769607543945
1667255030462791200,2.493791259765625,8.679488182067871,-1.1878284215927124,7.960142135620117
1667255030467750000,2.49875,9.080042839050293,-1.2512608766555786,8.167841911315918
1667255030472708400,2.503708251953125,9.406229972839355,-1.331649899482727,8.373987197875977
1667255030477667000,2.5086669921875,9.656851768493652,-1.4471993446350098,8.615254402160645
1667255030482625500,2.51362548828125,9.773982048034668,-1.5877158641815186,8.821802139282227
1667255030487584300,2.518584228515625,9.766063690185547,-1.7117414474487305,9.034419059753418
1667255030492543000,2.52354296875,9.68138313293457,-1.8364062309265137,9.26358413696289
1667255030497501400,2.52850146484375,9.50393295288086,-1.9524317979812622,9.529062271118164
1667255030502460200,2.533460205078125,9.221392631530762,-2.076751470565796,9.764471054077148
1667255030507418600,2.538418701171875,8.869059562683105,-2.1676008701324463,9.962299346923828
1667255030512377300,2.54337744140625,8.419695854187012,-2.2547945976257324,10.125328063964844
1667255030517336000,2.548336181640625,7.922054290771484,-2.3323161602020264,10.216773986816406
1667255030522294500,2.55329443359375,7.371732711791992,-2.3952229022979736,10.274065971374512
1667255030527253200,2.558253173828125,6.843842506408691,-2.45650577545166,10.270343780517578
1667255030532211700,2.563211669921875,6.23139762878418,-2.5003607273101807,10.166126251220703
1667255030537170400,2.56817041015625,5.537182807922363,-2.526653289794922,9.964792251586914
1667255030542129000,2.57312890625,4.804401397705078,-2.5446979999542236,9.68380355834961
1667255030547087600,2.578087646484375,4.0857038497924805,-2.5423617362976074,9.389303207397461
1667255030552046300,2.58304638671875,3.510181427001953,-2.5445845127105713,9.147418975830078
1667255030557004800,2.5880048828125,3.1029577255249023,-2.546330213546753,8.934182167053223
1667255030561963500,2.592963623046875,2.91204833984375,-2.5497913360595703,8.811408042907715
1667255030566922000,2.597921875,2.903322219848633,-2.5836446285247803,8.778876304626465
1667255030571880700,2.602880615234375,3.0537633895874023,-2.630000591278076,8.776473045349121
1667255030576839200,2.607839111328125,3.3788089752197266,-2.679478168487549,8.879385948181152
1667255030581798000,2.6127978515625,3.7853260040283203,-2.740445137023926,9.010043144226074
1667255030586756600,2.617756591796875,4.1899824142456055,-2.82489013671875,9.151863098144531
1667255030591715000,2.622715087890625,4.519232749938965,-2.912774085998535,9.240424156188965
1667255030596673800,2.627673828125,4.772452354431152,-2.9801621437072754,9.313741683959961
1667255030601632300,2.63263232421875,4.895266532897949,-3.073625087738037,9.349679946899414
1667255030606591000,2.637591064453125,4.934893608093262,-3.1369450092315674,9.349682807922363
1667255030611549700,2.6425498046875,4.93126106262207,-3.1699392795562744,9.332709312438965
1667255030616508200,2.647508056640625,4.84780216217041,-3.219107151031494,9.310014724731445
1667255030621467000,2.652466796875,4.745926856994629,-3.262624740600586,9.294896125793457
1667255030626425300,2.65742529296875,4.594987869262695,-3.2907016277313232,9.294129371643066
1667255030631384000,2.662384033203125,4.390630722045898,-3.3244824409484863,9.275723457336426
1667255030636342800,2.6673427734375,4.135601043701172,-3.3766860961914062,9.246435165405273
1667255030641301200,2.67230126953125,3.825471878051758,-3.407708168029785,9.224428176879883
1667255030646260000,2.677260009765625,3.47113037109375,-3.450575828552246,9.194803237915039
1667255030651218400,2.682218505859375,3.0809898376464844,-3.4775378704071045,9.16868782043457
1667255030656177200,2.68717724609375,2.7230052947998047,-3.5146844387054443,9.154471397399902
1667255030661135600,2.692135498046875,2.4146595001220703,-3.5616157054901123,9.159233093261719
1667255030666094300,2.69709423828125,2.107663154602051,-3.579948663711548,9.194944381713867
1667255030671053000,2.702052978515625,1.8217248916625977,-3.613591432571411,9.206812858581543
1667255030676011500,2.707011474609375,1.5430965423583984,-3.623018741607666,9.190661430358887
1667255030680970200,2.71197021484375,1.2866573333740234,-3.6523470878601074,9.173588752746582
1667255030685928700,2.7169287109375,1.0516939163208008,-3.689488649368286,9.162552833557129
1667255030690887400,2.721887451171875,0.8410205841064453,-3.728375196456909,9.117982864379883
1667255030695846000,2.726845947265625,0.6252317428588867,-3.752272605895996,9.084230422973633
1667255030700804600,2.7318046875,0.44298648834228516,-3.7874648571014404,9.048212051391602
1667255030705763300,2.736763427734375,0.29352569580078125,-3.823251724243164,9.006643295288086
1667255030710721800,2.7417216796875,0.14504528045654297,-3.8620200157165527,8.975461959838867
1667255030715680500,2.746680419921875,-0.0006084442138671875,-3.8882665634155273,8.916036605834961
1667255030720639000,2.751638916015625,-0.15342140197753906,-3.9283251762390137,8.818675994873047
1667255030725597700,2.75659765625,-0.3338918685913086,-3.949962615966797,8.726726531982422
1667255030730556200,2.76155615234375,-0.5097541809082031,-3.972372531890869,8.60491943359375
1667255030735515000,2.766514892578125,-0.6880550384521484,-3.994384288787842,8.454158782958984
1667255030740473600,2.7714736328125,-0.8398008346557617,-4.013647079467773,8.33061695098877
1667255030745432000,2.77643212890625,-0.9323883056640625,-4.049317836761475,8.227148056030273
1667255030750390800,2.781390869140625,-0.9558658599853516,-4.0739426612854,8.137946128845215
1667255030755349200,2.786349365234375,-0.9014711380004883,-4.103066921234131,8.084709167480469
1667255030760308000,2.791307861328125,-0.8224859237670898,-4.136808395385742,8.071198463439941
1667255030765266700,2.7962666015625,-0.7244138717651367,-4.178686618804932,8.065258979797363
1667255030770225200,2.80122509765625,-0.6127080917358398,-4.208541393280029,8.051400184631348
1667255030775184000,2.806183837890625,-0.5346832275390625,-4.244354248046875,8.029595375061035
1667255030780142300,2.811142333984375,-0.4707794189453125,-4.293270587921143,8.003239631652832
1667255030785101000,2.81610107421875,-0.4348936080932617,-4.326702117919922,7.985195636749268
1667255030790059800,2.821059814453125,-0.43621063232421875,-4.351914405822754,7.959439754486084
1667255030795018200,2.826018310546875,-0.4445171356201172,-4.413238525390625,7.931317329406738
1667255030799977000,2.83097705078125,-0.4738893508911133,-4.436548233032227,7.893047332763672
1667255030804935400,2.835935302734375,-0.5528163909912109,-4.4828081130981445,7.8162713050842285
1667255030809894100,2.84089404296875,-0.6846237182617188,-4.4960174560546875,7.765684127807617
1667255030814852600,2.8458525390625,-0.8631949424743652,-4.5311174392700195,7.6624956130981445
1667255030819811300,2.850811279296875,-1.0561790466308594,-4.565496444702148,7.578248023986816
1667255030824770000,2.85577001953125,-1.2468719482421875,-4.5944085121154785,7.495927333831787
1667255030829728500,2.860728515625,-1.4293856620788574,-4.627540588378906,7.413868427276611
1667255030834687200,2.865687255859375,-1.5764093399047852,-4.682811737060547,7.372188568115234
1667255030839645700,2.870645751953125,-1.7025518417358398,-4.7219977378845215,7.340319633483887
1667255030844604400,2.8756044921875,-1.8069019317626953,-4.759555816650391,7.318681716918945
1667255030849563000,2.88056298828125,-1.8778200149536133,-4.811060905456543,7.3256683349609375
1667255030854521600,2.885521484375,-1.9455490112304688,-4.832375526428223,7.324578285217285
1667255030859480300,2.890480224609375,-1.9938087463378906,-4.883284091949463,7.336000442504883
1667255030864438800,2.895438720703125,-2.0468764305114746,-4.918415546417236,7.356762409210205
1667255030869397500,2.9003974609375,-2.0979442596435547,-4.949842929840088,7.346665382385254
1667255030874356000,2.90535595703125,-2.189267635345459,-4.9738383293151855,7.325437068939209
1667255030879314700,2.910314697265625,-2.289966106414795,-5.022785186767578,7.3009772300720215
1667255030884273400,2.9152734375,-2.4027485847473145,-5.05124568939209,7.24174165725708
1667255030889232000,2.92023193359375,-2.543370246887207,-5.0676374435424805,7.1761040687561035
1667255030894190600,2.925190673828125,-2.6797256469726562,-5.091089248657227,7.103859901428223
1667255030899149000,2.930149169921875,-2.8156023025512695,-5.1095967292785645,7.01767635345459
1667255030904107800,2.935107666015625,-2.92484188079834,-5.137528419494629,6.937758445739746
1667255030909066500,2.94006640625,-3.032705783843994,-5.155742645263672,6.866370677947998
1667255030914025000,2.94502490234375,-3.120089054107666,-5.160609245300293,6.794100761413574
1667255030918983700,2.949983642578125,-3.2193307876586914,-5.182096004486084,6.726805210113525
1667255030923942100,2.954942138671875,-3.2993388175964355,-5.192621231079102,6.643157005310059
1667255030928900900,2.95990087890625,-3.386427879333496,-5.210109710693359,6.565920829772949
1667255030933859300,2.964859375,-3.46014404296875,-5.21547269821167,6.484563827514648
1667255030938818000,2.969818115234375,-3.530031204223633,-5.2337141036987305,6.411218166351318
1667255030943776800,2.97477685546875,-3.5983495712280273,-5.24215030670166,6.323372840881348
1667255030948735200,2.9797353515625,-3.664903163909912,-5.262289047241211,6.219009876251221
1667255030953694000,2.98469384765625,-3.736739158630371,-5.267810821533203,6.148541450500488
1667255030958652400,2.98965234375,-3.7896971702575684,-5.273087024688721,6.06217098236084
1667255030963611100,2.994611083984375,-3.8427841663360596,-5.282882213592529,5.987619400024414
1667255030968569600,2.999569580078125,-3.8671069145202637,-5.318647861480713,5.903790473937988
1667255030973528300,3.0045283203125,-3.876866102218628,-5.323016166687012,5.853984832763672
1667255030978487000,3.009487060546875,-3.869542121887207,-5.34861421585083,5.791792392730713
1667255030983445500,3.014445556640625,-3.833101511001587,-5.365453720092773,5.76053524017334
1667255030988404200,3.019404296875,-3.756685495376587,-5.386719703674316,5.7412800788879395
1667255030993362700,3.02436279296875,-3.670072555541992,-5.426754951477051,5.7246904373168945
1667255030998321400,3.0293212890625,-3.5600647926330566,-5.437689304351807,5.704995155334473
1667255031003280100,3.034280029296875,-3.426553249359131,-5.473410129547119,5.727743148803711
1667255031008238600,3.039238525390625,-3.3076987266540527,-5.490809440612793,5.741779327392578
1667255031013197300,3.044197265625,-3.199840545654297,-5.5424394607543945,5.723381519317627
1667255031018155800,3.04915576171875,-3.139904022216797,-5.561378002166748,5.714547634124756
1667255031023114500,3.054114501953125,-3.133723258972168,-5.5751237869262695,5.6604814529418945
1667255031028073200,3.0590732421875,-3.1454334259033203,-5.613496780395508,5.599452018737793
1667255031033031700,3.06403173828125,-3.171355724334717,-5.621568202972412,5.5327301025390625
1667255031037990400,3.068990478515625,-3.186490535736084,-5.626733303070068,5.468667984008789
1667255031042948900,3.073948974609375,-3.154951572418213,-5.643466949462891,5.4394683837890625
1667255031047907600,3.078907470703125,-3.122281074523926,-5.668052673339844,5.4200119972229
1667255031052866000,3.083865966796875,-3.090897560119629,-5.692148208618164,5.410186767578125
1667255031057824800,3.08882470703125,-3.0955119132995605,-5.690590858459473,5.345455646514893
1667255031062783500,3.093783447265625,-3.108686923980713,-5.701634883880615,5.292609214782715
1667255031067742000,3.098741943359375,-3.1520652770996094,-5.719144821166992,5.226430416107178
1667255031072700700,3.10370068359375,-3.199380397796631,-5.724022388458252,5.16348934173584
1667255031077659100,3.1086591796875,-3.2316627502441406,-5.719762802124023,5.096451759338379
1667255031082617900,3.113617919921875,-3.2585527896881104,-5.723129749298096,5.053788185119629
1667255031087576600,3.11857666015625,-3.249122381210327,-5.733958721160889,4.993621826171875
1667255031092535000,3.12353515625,-3.2333240509033203,-5.745079517364502,4.966031074523926
1667255031097493800,3.12849365234375,-3.1872620582580566,-5.762511253356934,4.936248779296875
1667255031102452200,3.1334521484375,-3.1122584342956543,-5.765794277191162,4.928203582763672
1667255031107411000,3.138410888671875,-3.0131139755249023,-5.771663188934326,4.925184726715088
1667255031112369700,3.14336962890625,-2.8994336128234863,-5.782431602478027,4.927260398864746
1667255031117328100,3.148328125,-2.7772607803344727,-5.79683256149292,4.949915409088135
1667255031122286800,3.153286865234375,-2.6538286209106445,-5.787295818328857,4.963256359100342
1667255031127245300,3.158245361328125,-2.533872127532959,-5.80877685546875,4.954300880432129
1667255031132204000,3.1632041015625,-2.4461026191711426,-5.810946464538574,4.953004360198975
1667255031137162800,3.168162841796875,-2.3701319694519043,-5.806978225708008,4.953422546386719
1667255031142121200,3.173121337890625,-2.2665634155273438,-5.800384044647217,4.954376697540283
1667255031147080000,3.178079833984375,-2.168917179107666,-5.797051906585693,4.948761940002441
1667255031152038400,3.183038330078125,-2.0783581733703613,-5.789814472198486,4.944951057434082
1667255031156997000,3.1879970703125,-1.981839656829834,-5.78217887878418,4.929608345031738
1667255031161955600,3.19295556640625,-1.8854198455810547,-5.7704901695251465,4.938432693481445
1667255031166914300,3.197914306640625,-1.7688169479370117,-5.758313179016113,4.959315299987793
1667255031171872800,3.202872802734375,-1.6608591079711914,-5.756267070770264,4.965725898742676
1667255031176831500,3.20783154296875,-1.5663213729858398,-5.735657215118408,4.9981255531311035
1667255031181790200,3.212790283203125,-1.4578442573547363,-5.721466064453125,5.002373695373535
1667255031186748700,3.217748779296875,-1.3569774627685547,-5.714835166931152,5.01172399520874
1667255031191707400,3.222707275390625,-1.2732396125793457,-5.694253921508789,5.021170139312744
1667255031196665900,3.227665771484375,-1.1732382774353027,-5.683485984802246,5.0017900466918945
1667255031201624600,3.23262451171875,-1.082056999206543,-5.671740531921387,4.997581481933594
1667255031206583300,3.237583251953125,-0.9971718788146973,-5.648314952850342,5.000038146972656
1667255031211541800,3.242541748046875,-0.9292545318603516,-5.635863304138184,4.991196632385254
1667255031216500500,3.24750048828125,-0.8471460342407227,-5.617559432983398,4.952003002166748
1667255031221459000,3.252458984375,-0.7650480270385742,-5.611356258392334,4.915998458862305
1667255031226417700,3.257417724609375,-0.6780972480773926,-5.589695930480957,4.886734485626221
1667255031231376400,3.26237646484375,-0.5873336791992188,-5.556197166442871,4.8774566650390625
1667255031236334800,3.2673349609375,-0.46997833251953125,-5.529911041259766,4.847565650939941
1667255031241293600,3.27229345703125,-0.35816335678100586,-5.507256507873535,4.844960689544678
1667255031246252000,3.277251953125,-0.23018169403076172,-5.477530479431152,4.837543487548828
1667255031251210800,3.282210693359375,-0.08708667755126953,-5.470582485198975,4.79598331451416
1667255031256169500,3.28716943359375,0.06531190872192383,-5.43387508392334,4.795993328094482
1667255031261128000,3.2921279296875,0.22953128814697266,-5.399720191955566,4.78665018081665
1667255031266086700,3.297086669921875,0.3877415657043457,-5.381255149841309,4.766073226928711
1667255031271045000,3.302045166015625,0.5663905143737793,-5.361848831176758,4.761193752288818
1667255031276003800,3.30700390625,0.7511777877807617,-5.323606491088867,4.736762046813965
1667255031280962300,3.31196240234375,0.9529147148132324,-5.29292631149292,4.753199577331543
1667255031285921000,3.316921142578125,1.154860019683838,-5.256688117980957,4.756001949310303
1667255031290879700,3.321879638671875,1.3773322105407715,-5.23051643371582,4.7756171226501465
1667255031295838200,3.326838134765625,1.5760822296142578,-5.182210922241211,4.786172866821289
1667255031300797000,3.331796875,1.7833595275878906,-5.142924785614014,4.8190131187438965
1667255031305755400,3.33675537109375,1.979970932006836,-5.109069347381592,4.8563714027404785
1667255031310714000,3.341714111328125,2.1527957916259766,-5.060465335845947,4.870729446411133
1667255031315672800,3.3466728515625,2.3125782012939453,-4.999547481536865,4.903807640075684
1667255031320631300,3.35163134765625,2.4473676681518555,-4.94066858291626,4.914566993713379
1667255031325590000,3.356590087890625,2.5667543411254883,-4.8981428146362305,4.932322978973389
1667255031330548500,3.361548583984375,2.687596321105957,-4.84340763092041,4.95756196975708
1667255031335507200,3.366507080078125,2.800419807434082,-4.778892993927002,4.988272666931152
1667255031340466000,3.3714658203125,2.918458938598633,-4.747594833374023,5.002248287200928
1667255031345424400,3.37642431640625,3.0144433975219727,-4.675619602203369,5.0191545486450195
1667255031350383000,3.381383056640625,3.074190139770508,-4.61077880859375,5.008402347564697
1667255031355341600,3.386341552734375,3.1290292739868164,-4.575875282287598,5.002749443054199
1667255031360300300,3.39130029296875,3.1768035888671875,-4.543557167053223,4.980158805847168
1667255031365258800,3.3962587890625,3.224863052368164,-4.48630428314209,4.963924407958984
1667255031370217500,3.401217529296875,3.267498016357422,-4.400756359100342,4.9392290115356445
1667255031375176200,3.40617626953125,3.362229347229004,-4.345461368560791,4.904585838317871
1667255031380134700,3.411134765625,3.4817256927490234,-4.291881561279297,4.902912139892578
1667255031385093400,3.41609326171875,3.612929344177246,-4.229303359985352,4.8949456214904785
1667255031390051800,3.4210517578125,3.791746139526367,-4.1638054847717285,4.887118816375732
1667255031395010600,3.426010498046875,3.972743034362793,-4.107525825500488,4.875394344329834
1667255031399969300,3.43096923828125,4.164192199707031,-4.035329818725586,4.866507053375244
1667255031404927700,3.435927734375,4.373128890991211,-3.973574638366699,4.860130310058594
1667255031409886500,3.440886474609375,4.598142623901367,-3.9008681774139404,4.853760242462158
1667255031414845000,3.445844970703125,4.834201812744141,-3.8304390907287598,4.860293865203857
1667255031419803600,3.4508037109375,5.088186264038086,-3.762272596359253,4.873379707336426
1667255031424762400,3.455762451171875,5.312007904052734,-3.677263021469116,4.878232002258301
1667255031429720800,3.460720947265625,5.528158187866211,-3.592132329940796,4.902846336364746
1667255031434679600,3.465679443359375,5.754335403442383,-3.500922918319702,4.902250289916992
1667255031439638000,3.470637939453125,5.962860107421875,-3.417848825454712,4.918419361114502
1667255031444596700,3.4755966796875,6.154869079589844,-3.3022537231445312,4.938114166259766
1667255031449555500,3.480555419921875,6.319541931152344,-3.199512481689453,4.963646411895752
1667255031454514000,3.485513916015625,6.481966972351074,-3.09519100189209,4.958985328674316
1667255031459472600,3.49047265625,6.645742416381836,-3.007218360900879,4.960974216461182
1667255031464431000,3.49543115234375,6.790566444396973,-2.901986598968506,4.980076789855957
1667255031469389800,3.500389892578125,6.921344757080078,-2.784389019012451,5.0003886222839355
1667255031474348300,3.505348388671875,7.059727668762207,-2.700958251953125,5.003523349761963
1667255031479307000,3.51030712890625,7.170080184936523,-2.600189208984375,5.009164810180664
1667255031484265700,3.515265625,7.241905212402344,-2.4844417572021484,4.985688209533691
1667255031489224200,3.52022412109375,7.293448448181152,-2.370389461517334,4.981463432312012
1667255031494183000,3.525182861328125,7.322549819946289,-2.2652182579040527,4.938713550567627
1667255031499141400,3.530141357421875,7.340155601501465,-2.161552906036377,4.887028694152832
1667255031504100000,3.53510009765625,7.373845100402832,-2.0580883026123047,4.838259696960449
1667255031509058800,3.540058837890625,7.47147274017334,-1.9464486837387085,4.811461448669434
1667255031514017300,3.545017333984375,7.591151237487793,-1.8313665390014648,4.810263633728027
1667255031518976000,3.54997607421875,7.7316484451293945,-1.7164533138275146,4.806131362915039
1667255031523934500,3.5549345703125,7.855924606323242,-1.6087807416915894,4.79314661026001
1667255031528893200,3.55989306640625,7.987846374511719,-1.4915666580200195,4.793064117431641
1667255031533852000,3.564851806640625,8.12742805480957,-1.385080337524414,4.786827087402344
1667255031538810400,3.569810302734375,8.263944625854492,-1.2725861072540283,4.773301601409912
1667255031543769000,3.57476904296875,8.389062881469727,-1.1564263105392456,4.756167411804199
1667255031548727600,3.5797275390625,8.513629913330078,-1.0186177492141724,4.7270331382751465
1667255031553686300,3.584686279296875,8.574437141418457,-0.9056923389434814,4.697805881500244
1667255031558645000,3.58964501953125,8.621722221374512,-0.7698072791099548,4.64479923248291
1667255031563603500,3.594603515625,8.643421173095703,-0.6575351357460022,4.5851521492004395
1667255031568562200,3.599562255859375,8.680041313171387,-0.5234896540641785,4.506111145019531
1667255031573520600,3.604520751953125,8.748067855834961,-0.4094676971435547,4.4213457107543945
1667255031578479400,3.609479248046875,8.805445671081543,-0.31068265438079834,4.3623223304748535
1667255031583437800,3.614437744140625,8.848458290100098,-0.20683735609054565,4.314977645874023
1667255031588396500,3.619396484375,8.934271812438965,-0.07896685600280762,4.24858283996582
1667255031593355300,3.624355224609375,9.01362133026123,0.03582584857940674,4.210132598876953
1667255031598313700,3.629313720703125,9.104248046875,0.15059006214141846,4.155672550201416
1667255031603272400,3.6342724609375,9.150972366333008,0.2497043013572693,4.1141886711120605
1667255031608231000,3.63923095703125,9.183561325073242,0.3773452043533325,4.033313274383545
1667255031613189600,3.644189697265625,9.220988273620605,0.47956281900405884,3.9694294929504395
1667255031618148400,3.6491484375,9.238109588623047,0.5824567079544067,3.915327548980713
1667255031623106800,3.65410693359375,9.249364852905273,0.7086732387542725,3.8493261337280273
1667255031628065500,3.6590654296875,9.231056213378906,0.8030968308448792,3.7722911834716797
1667255031633024000,3.66402392578125,9.183473587036133,0.9312833547592163,3.714869499206543
1667255031637982700,3.668982666015625,9.147647857666016,1.0334382057189941,3.6227259635925293
1667255031642941400,3.67394140625,9.067802429199219,1.1404924392700195,3.570582389831543
1667255031647900000,3.67889990234375,8.983930587768555,1.2475812435150146,3.4716506004333496
1667255031652858600,3.683858642578125,8.9036283493042,1.354538917541504,3.3815560340881348
1667255031657817000,3.688817138671875,8.835688591003418,1.4684717655181885,3.3164429664611816
1667255031662775800,3.69377587890625,8.783923149108887,1.5833156108856201,3.258070468902588
1667255031667734300,3.698734375,8.767600059509277,1.6893864870071411,3.1787428855895996
1667255031672693000,3.70369287109375,8.743696212768555,1.7841140031814575,3.111879348754883
1667255031677651700,3.708651611328125,8.677475929260254,1.8865206241607666,3.0145983695983887
1667255031682610200,3.713610107421875,8.590475082397461,1.9952924251556396,2.9096879959106445
1667255031687569000,3.71856884765625,8.552939414978027,2.0910232067108154,2.8165340423583984
1667255031692527400,3.72352734375,8.612308502197266,2.1759719848632812,2.756925106048584
1667255031697486000,3.728486083984375,8.732285499572754,2.2846803665161133,2.7347331047058105
1667255031702444800,3.73344482421875,8.909915924072266,2.3691277503967285,2.744385242462158
1667255031707403300,3.7384033203125,9.090882301330566,2.468658447265625,2.776719093322754
1667255031712362000,3.743362060546875,9.28895092010498,2.5424137115478516,2.7843542098999023
1667255031717320700,3.74832080078125,9.48315143585205,2.645242929458618,2.79412841796875
1667255031722279200,3.753279052734375,9.581056594848633,2.732844829559326,2.7633285522460938
1667255031727238000,3.75823779296875,9.572738647460938,2.8422341346740723,2.6887807846069336
1667255031732196400,3.7631962890625,9.443674087524414,2.9529855251312256,2.549159049987793
1667255031737155000,3.768155029296875,9.252401351928711,3.049638271331787,2.3529624938964844
1667255031742113800,3.77311376953125,9.015754699707031,3.1716151237487793,2.170541763305664
1667255031747072300,3.778072265625,8.768416404724121,3.294917106628418,1.987349510192871
1667255031752031000,3.783031005859375,8.558460235595703,3.4053425788879395,1.8377046585083008
1667255031756989400,3.787989501953125,8.360857009887695,3.5195155143737793,1.6925406455993652
1667255031761948200,3.7929482421875,8.190282821655273,3.618408679962158,1.55979585647583
1667255031766906600,3.79790673828125,8.052907943725586,3.7199878692626953,1.4606318473815918
1667255031771865300,3.802865234375,7.970418453216553,3.8159499168395996,1.3839774131774902
1667255031776824000,3.807823974609375,7.935691833496094,3.923006534576416,1.3343548774719238
1667255031781782500,3.812782470703125,7.922613143920898,4.019674301147461,1.2887473106384277
1667255031786741200,3.8177412109375,7.930163860321045,4.103625297546387,1.2791757583618164
1667255031791699700,3.82269970703125,7.899866104125977,4.192729949951172,1.2265205383300781
1667255031796658400,3.827658447265625,7.818748950958252,4.279877185821533,1.1737265586853027
1667255031801617200,3.8326171875,7.702513217926025,4.368692398071289,1.0513839721679688
1667255031806575600,3.83757568359375,7.5452680587768555,4.4567742347717285,0.961052417755127
1667255031811534300,3.842534423828125,7.395955562591553,4.5513176918029785,0.8286781311035156
1667255031816492800,3.847492919921875,7.246256351470947,4.635707855224609,0.7045207023620605
1667255031821451500,3.852451416015625,7.127074241638184,4.705132484436035,0.5934076309204102
1667255031826410200,3.85741015625,7.039430141448975,4.795536041259766,0.49547290802001953
1667255031831368700,3.86236865234375,6.9819655418396,4.873445510864258,0.4334716796875
1667255031836327400,3.867327392578125,6.9699788093566895,4.952056884765625,0.374051570892334
1667255031841286000,3.872285888671875,6.971043586730957,5.009838104248047,0.3339505195617676
1667255031846244600,3.87724462890625,6.971930027008057,5.085183620452881,0.28460073471069336
1667255031851203000,3.882203125,6.9223713874816895,5.160186290740967,0.22248029708862305
1667255031856161800,3.887161865234375,6.8236002922058105,5.219356060028076,0.1344738006591797
1667255031861120500,3.89212060546875,6.6791911125183105,5.3058247566223145,-0.0007848739624023438
1667255031866079000,3.897078857421875,6.480823040008545,5.39571475982666,-0.14617586135864258
1667255031871037700,3.90203759765625,6.28007698059082,5.486688613891602,-0.2898287773132324
1667255031875996200,3.90699609375,6.082923889160156,5.548964977264404,-0.4101719856262207
1667255031880955000,3.911954833984375,5.898913383483887,5.618471145629883,-0.5347051620483398
1667255031885913600,3.91691357421875,5.74586296081543,5.688141822814941,-0.6704421043395996
1667255031890872000,3.9218720703125,5.61290979385376,5.753167152404785,-0.8066315650939941
1667255031895830800,3.926830810546875,5.52863883972168,5.810015678405762,-0.8595705032348633
1667255031900789200,3.931789306640625,5.5179948806762695,5.853958606719971,-0.9069652557373047
1667255031905748000,3.936748046875,5.585580825805664,5.914867877960205,-0.8998346328735352
1667255031910706700,3.941706787109375,5.675041198730469,5.971220970153809,-0.8907923698425293
1667255031915665200,3.9466650390625,5.762302875518799,6.027842998504639,-0.8689870834350586
1667255031920623900,3.951623779296875,5.825685977935791,6.053632736206055,-0.8702564239501953
1667255031925582300,3.956582275390625,5.842480659484863,6.103551864624023,-0.9006204605102539
1667255031930541000,3.961541015625,5.807910919189453,6.153677463531494,-0.9624457359313965
1667255031935499800,3.966499755859375,5.711270332336426,6.198076248168945,-1.0258116722106934
1667255031940458200,3.971458251953125,5.569396018981934,6.251058101654053,-1.1266751289367676
1667255031945417000,3.9764169921875,5.388375282287598,6.29827356338501,-1.2471489906311035
1667255031950375400,3.98137548828125,5.210099220275879,6.334944248199463,-1.3824958801269531
1667255031955334100,3.986334228515625,4.9761552810668945,6.381403923034668,-1.5041389465332031
1667255031960292600,3.991292724609375,4.7739386558532715,6.430498123168945,-1.6288890838623047
1667255031965251300,3.996251220703125,4.57956600189209,6.497716426849365,-1.7353534698486328
1667255031970210000,4.0012099609375,4.425414085388184,6.52207612991333,-1.834444522857666
1667255031975168500,4.00616845703125,4.296063423156738,6.562211990356445,-1.9095282554626465
1667255031980127200,4.011127197265625,4.2274017333984375,6.583408355712891,-1.933276653289795
1667255031985085700,4.016085693359375,4.201690196990967,6.625131607055664,-1.9584884643554688
1667255031990044400,4.02104443359375,4.240394592285156,6.6550493240356445,-1.9529712200164795
1667255031995003100,4.026003173828125,4.3137006759643555,6.651625633239746,-1.9204976558685303
1667255031999961600,4.030961669921875,4.3835015296936035,6.68063497543335,-1.8994355201721191
1667255032004920300,4.03592041015625,4.417636871337891,6.69184684753418,-1.8982059955596924
1667255032009879000,4.040879150390625,4.414896488189697,6.716337203979492,-1.900054931640625
1667255032014837500,4.04583740234375,4.393179893493652,6.740911483764648,-1.9324827194213867
1667255032019796200,4.050796142578125,4.365753173828125,6.775157928466797,-1.9799420833587646
1667255032024754700,4.055754638671875,4.3097333908081055,6.795210361480713,-2.024352550506592
1667255032029713400,4.06071337890625,4.247616291046143,6.823716163635254,-2.101559638977051
1667255032034672000,4.065672119140625,4.184134483337402,6.8415374755859375,-2.14461350440979
1667255032039630600,4.070630615234375,4.170436859130859,6.869033336639404,-2.197641611099243
1667255032044589300,4.07558935546875,4.1893815994262695,6.882253170013428,-2.213951826095581
1667255032049547800,4.0805478515625,4.214466571807861,6.899085521697998,-2.2342491149902344
1667255032054506500,4.085506591796875,4.22873067855835,6.8932576179504395,-2.2536673545837402
1667255032059465000,4.09046484375,4.234471321105957,6.891104698181152,-2.2697935104370117
1667255032064423700,4.095423583984375,4.217403411865234,6.926081657409668,-2.301814556121826
1667255032069382400,4.10038232421875,4.172613143920898,6.95519495010376,-2.367520332336426
1667255032074340900,4.1053408203125,4.111988544464111,6.97010612487793,-2.4094934463500977
1667255032079299600,4.110299560546875,4.030726432800293,6.992334365844727,-2.4756011962890625
1667255032084258000,4.115258056640625,3.944164276123047,7.009938716888428,-2.5322916507720947
1667255032089216800,4.120216796875,3.8702614307403564,7.036135673522949,-2.605835437774658
1667255032094175500,4.125175537109375,3.773104190826416,7.055361270904541,-2.6771464347839355
1667255032099134000,4.130134033203125,3.684890031814575,7.061706066131592,-2.7425756454467773
1667255032104092700,4.1350927734375,3.5888094902038574,7.082657814025879,-2.8141160011291504
1667255032109051100,4.140051025390625,3.493293523788452,7.081170082092285,-2.889411449432373
1667255032114009900,4.145009765625,3.4305596351623535,7.088376998901367,-2.9373631477355957
1667255032118968600,4.149968505859375,3.373152732849121,7.094672679901123,-2.973649501800537
1667255032123927000,4.154927001953125,3.3329358100891113,7.102450370788574,-2.988731861114502
1667255032128885800,4.1598857421875,3.3374075889587402,7.112913608551025,-2.98864483833313
1667255032133844200,4.16484423828125,3.355403184890747,7.102137565612793,-2.990182399749756
1667255032138803000,4.169802978515625,3.391781806945801,7.094031810760498,-3.004181385040283
1667255032143761400,4.174761474609375,3.426187515258789,7.085023880004883,-2.974464178085327
1667255032148720000,4.17972021484375,3.4657645225524902,7.058330059051514,-2.959726333618164
1667255032153678800,4.184678955078125,3.488994836807251,7.051053047180176,-2.963500499725342
1667255032158637300,4.18963720703125,3.492403507232666,7.055997848510742,-2.955941677093506
1667255032163596000,4.194595947265625,3.485565662384033,7.027717113494873,-2.96220326423645
1667255032168554800,4.1995546875,3.454176902770996,7.0307769775390625,-2.987067699432373
1667255032173513200,4.20451318359375,3.406697988510132,7.010202407836914,-3.032893419265747
1667255032178472000,4.209471923828125,3.3790743350982666,7.010275840759277,-3.0470504760742188
1667255032183430400,4.214430419921875,3.376070499420166,6.999814987182617,-3.046436309814453
1667255032188389000,4.21938916015625,3.383229970932007,6.9848480224609375,-3.0393548011779785
1667255032193347800,4.224347900390625,3.3850913047790527,6.971337795257568,-3.0342273712158203
1667255032198306300,4.229306396484375,3.382802963256836,6.935366630554199,-3.044201135635376
1667255032203265000,4.23426513671875,3.3548004627227783,6.930774688720703,-3.0703725814819336
1667255032208223500,4.239223388671875,3.3261256217956543,6.920416355133057,-3.0972437858581543
1667255032213182200,4.24418212890625,3.333824634552002,6.881583213806152,-3.11167573928833
1667255032218141000,4.249140869140625,3.334812641143799,6.853758811950684,-3.100498676300049
1667255032223099400,4.254099365234375,3.3852481842041016,6.832115650177002,-3.0685529708862305
1667255032228058000,4.25905810546875,3.436013698577881,6.805867671966553,-3.05767822265625
1667255032233016600,4.2640166015625,3.469156265258789,6.7666335105896,-3.0463390350341797
1667255032237975300,4.268975341796875,3.503876209259033,6.743093013763428,-2.999896764755249
1667255032242933800,4.273933837890625,3.5342869758605957,6.707774639129639,-2.9840755462646484
1667255032247892500,4.278892578125,3.5735793113708496,6.672603607177734,-2.968996524810791
1667255032252851200,4.283851318359375,3.5954737663269043,6.631606101989746,-2.9402952194213867
1667255032257809700,4.2888095703125,3.637086868286133,6.595539569854736,-2.921872615814209
1667255032262768400,4.293768310546875,3.6684417724609375,6.5691070556640625,-2.913743257522583
1667255032267726800,4.298726806640625,3.66217041015625,6.5332231521606445,-2.9074671268463135
1667255032272685600,4.303685546875,3.662476062774658,6.5045857429504395,-2.9233479499816895
1667255032277644300,4.308644287109375,3.6501882076263428,6.458089828491211,-2.9158968925476074
1667255032282602800,4.313602783203125,3.6635303497314453,6.406875133514404,-2.9126029014587402
1667255032287561500,4.3185615234375,3.665457010269165,6.370044708251953,-2.9158363342285156
1667255032292520000,4.32352001953125,3.6952857971191406,6.322396755218506,-2.8897547721862793
1667255032297478700,4.328478759765625,3.7911763191223145,6.257966995239258,-2.839106559753418
1667255032302437400,4.333437255859375,3.9003660678863525,6.199400901794434,-2.777060031890869
1667255032307395800,4.338395751953125,4.040818214416504,6.13707160949707,-2.706043243408203
1667255032312354600,4.3433544921875,4.191997528076172,6.0565643310546875,-2.6319963932037354
1667255032317313000,4.34831298828125,4.347903251647949,5.979490280151367,-2.536823272705078
1667255032322271700,4.353271728515625,4.463087558746338,5.917686462402344,-2.4707651138305664
1667255032327230500,4.35823046875,4.555482387542725,5.839999675750732,-2.4050774574279785
1667255032332189000,4.36318896484375,4.631074905395508,5.769214153289795,-2.3694660663604736
1667255032337147600,4.368147705078125,4.6852216720581055,5.7040886878967285,-2.3208703994750977
1667255032342106000,4.373106201171875,4.699974536895752,5.662518501281738,-2.2950634956359863
1667255032347064800,4.37806494140625,4.678993225097656,5.609842300415039,-2.297879219055176
1667255032352023600,4.3830234375,4.625984191894531,5.547327041625977,-2.3016700744628906
1667255032356982000,4.38798193359375,4.595902442932129,5.483280181884766,-2.312364101409912
1667255032361940700,4.392940673828125,4.5850725173950195,5.429680347442627,-2.2903590202331543
1667255032366899200,4.397899169921875,4.5803446769714355,5.362616539001465,-2.2642745971679688
1667255032371858000,4.40285791015625,4.62111759185791,5.291597366333008,-2.226896286010742
1667255032376816600,4.407816650390625,4.7098565101623535,5.199869632720947,-2.148343563079834
1667255032381775000,4.412775146484375,4.798807621002197,5.1209187507629395,-2.087153434753418
1667255032386733800,4.41773388671875,4.847504138946533,5.030824661254883,-2.0086231231689453
1667255032391692300,4.4226923828125,4.895726203918457,4.96787691116333,-1.9569897651672363
1667255032396651000,4.427651123046875,4.918729782104492,4.899862289428711,-1.8915948867797852
1667255032401609700,4.432609619140625,4.900201797485352,4.83278751373291,-1.8615388870239258
1667255032406568200,4.437568115234375,4.83573055267334,4.759603500366211,-1.8416681289672852
1667255032411527000,4.44252685546875,4.774594306945801,4.716168403625488,-1.8415980339050293
1667255032416485400,4.4474853515625,4.720664024353027,4.660799026489258,-1.8254070281982422
1667255032421444000,4.452444091796875,4.680074214935303,4.592390060424805,-1.8038644790649414
1667255032426402600,4.457402587890625,4.680405616760254,4.53491735458374,-1.753066062927246
1667255032431361300,4.462361328125,4.740804195404053,4.463324069976807,-1.6790008544921875
1667255032436320000,4.467320068359375,4.860016822814941,4.397991180419922,-1.5971827507019043
1667255032441278500,4.472278564453125,4.97593355178833,4.299513816833496,-1.498072624206543
1667255032446237200,4.4772373046875,5.127999305725098,4.220554351806641,-1.3840398788452148
1667255032451196000,4.48219580078125,5.302893161773682,4.1263933181762695,-1.2490625381469727
1667255032456154400,4.487154296875,5.440742492675781,4.035074234008789,-1.1348223686218262
1667255032461113000,4.492113037109375,5.537978649139404,3.959829330444336,-1.0531282424926758
1667255032466071600,4.497071533203125,5.614880561828613,3.8886866569519043,-0.9692130088806152
1667255032471030300,4.5020302734375,5.700094223022461,3.8145759105682373,-0.8901081085205078
1667255032475989000,4.506989013671875,5.768453598022461,3.7483439445495605,-0.7941670417785645
1667255032480947500,4.511947509765625,5.83299446105957,3.6756694316864014,-0.720707893371582
1667255032485906200,4.51690625,5.864917278289795,3.595463514328003,-0.6623458862304688
1667255032490864600,4.52186474609375,5.906065464019775,3.53649640083313,-0.6105952262878418
1667255032495823400,4.5268232421875,5.962228775024414,3.455735445022583,-0.5222711563110352
1667255032500781800,4.53178173828125,6.09062385559082,3.3555362224578857,-0.405698299407959
1667255032505740500,4.536740478515625,6.228844165802002,3.2633934020996094,-0.2691011428833008
1667255032510699300,4.54169921875,6.351799964904785,3.180509567260742,-0.14113092422485352
1667255032515657700,4.54665771484375,6.438073635101318,3.084216594696045,-0.015776634216308594
1667255032520616400,4.551616455078125,6.486544132232666,2.998375415802002,0.07469606399536133
1667255032525575000,4.556574951171875,6.513058662414551,2.923055410385132,0.16008377075195312
1667255032530533600,4.56153369140625,6.490334987640381,2.8392107486724854,0.23317193984985352
1667255032535492400,4.566492431640625,6.446289539337158,2.7768185138702393,0.2949333190917969
1667255032540450800,4.571450927734375,6.3835272789001465,2.694082260131836,0.3368968963623047
1667255032545409500,4.576409423828125,6.3346357345581055,2.642530918121338,0.389955997467041
1667255032550368000,4.581367919921875,6.315369129180908,2.595949172973633,0.4622983932495117
1667255032555326700,4.58632666015625,6.324589729309082,2.508894443511963,0.5406208038330078
1667255032560285400,4.591285400390625,6.37432861328125,2.402940034866333,0.6498775482177734
1667255032565244000,4.596243896484375,6.444253444671631,2.336625576019287,0.7636556625366211
1667255032570202600,4.60120263671875,6.564134120941162,2.236987352371216,0.8999052047729492
1667255032575161300,4.606161376953125,6.694352626800537,2.126673698425293,1.0454988479614258
1667255032580119800,4.611119873046875,6.801366329193115,2.05586576461792,1.1658201217651367
1667255032585078500,4.61607861328125,6.89700984954834,1.9432154893875122,1.2885007858276367
1667255032590037000,4.621037109375,6.941760540008545,1.8497412204742432,1.4052925109863281
1667255032594995700,4.62599560546875,6.981070041656494,1.7742879390716553,1.500725269317627
1667255032599954200,4.6309541015625,7.01717472076416,1.6820473670959473,1.5928640365600586
1667255032604913000,4.635912841796875,7.058472156524658,1.586185336112976,1.6996216773986816
1667255032609871600,4.64087158203125,7.126379489898682,1.481896162033081,1.821080207824707
1667255032614830000,4.645830078125,7.172958850860596,1.3750765323638916,1.9406023025512695
1667255032619788800,4.650788818359375,7.180302143096924,1.282285213470459,2.027097225189209
1667255032624747300,4.655747314453125,7.16974401473999,1.1855299472808838,2.0928449630737305
1667255032629706000,4.6607060546875,7.160487651824951,1.0763063430786133,2.183208465576172
1667255032634664700,4.665664794921875,7.173994064331055,0.9689161777496338,2.285116195678711
1667255032639623200,4.670623046875,7.18999719619751,0.8501553535461426,2.403289794921875
1667255032644582000,4.675581787109375,7.191877841949463,0.7379434108734131,2.499398708343506
1667255032649540400,4.680540283203125,7.181003570556641,0.6537463665008545,2.572134494781494
1667255032654499000,4.6854990234375,7.16354513168335,0.568915605545044,2.7038216590881348
1667255032659457800,4.690457763671875,7.172018051147461,0.48240745067596436,2.7973732948303223
1667255032664416300,4.695416259765625,7.180207252502441,0.390483021736145,2.899275302886963
1667255032669375000,4.700375,7.1787309646606445,0.2932976484298706,3.0212979316711426
1667255032674333400,4.70533349609375,7.1652679443359375,0.20640456676483154,3.1239237785339355
1667255032679292200,4.710292236328125,7.174540042877197,0.10700678825378418,3.211867332458496
1667255032684250600,4.715250732421875,7.175409317016602,-0.006039738655090332,3.322284698486328
1667255032689209300,4.720209228515625,7.164223670959473,-0.10539042949676514,3.4050583839416504
1667255032694168000,4.72516796875,7.160086631774902,-0.19455695152282715,3.496185302734375
1667255032699126500,4.73012646484375,7.139037132263184,-0.27707386016845703,3.575486183166504
1667255032704085200,4.735085205078125,7.129828453063965,-0.36963438987731934,3.68118953704834
1667255032709044000,4.7400439453125,7.1145172119140625,-0.4686824083328247,3.770285129547119
1667255032714002400,4.74500244140625,7.117035865783691,-0.5621472001075745,3.8846492767333984
1667255032718961200,4.749961181640625,7.128949165344238,-0.6548416614532471,4.001675605773926
1667255032723919600,4.754919677734375,7.152683258056641,-0.7478901147842407,4.123741149902344
1667255032728878300,4.75987841796875,7.169053077697754,-0.8330335021018982,4.2306647300720215
1667255032733837000,4.764837158203125,7.1493940353393555,-0.9437539577484131,4.328509330749512
1667255032738795500,4.76979541015625,7.103336334228516,-1.044123888015747,4.412548542022705
1667255032743754200,4.774754150390625,7.020208358764648,-1.1544780731201172,4.468451499938965
1667255032748712700,4.779712646484375,6.8929548263549805,-1.2448285818099976,4.514136791229248
1667255032753671400,4.78467138671875,6.737282752990723,-1.317491054534912,4.543483257293701
1667255032758630100,4.789630126953125,6.5748748779296875,-1.3974097967147827,4.556285381317139
1667255032763588600,4.794588623046875,6.414259910583496,-1.4592818021774292,4.589313507080078
1667255032768547300,4.79954736328125,6.290261268615723,-1.5340827703475952,4.639762878417969
1667255032773505800,4.804505859375,6.1957550048828125,-1.6096922159194946,4.706168174743652
1667255032778464500,4.809464599609375,6.154695510864258,-1.6872321367263794,4.791803359985352
1667255032783423000,4.814423095703125,6.163487434387207,-1.7497392892837524,4.923891067504883
1667255032788381700,4.819381591796875,6.181390762329102,-1.8366179466247559,5.035449981689453
1667255032793340400,4.82434033203125,6.189159393310547,-1.904874324798584,5.1255035400390625
1667255032798299000,4.829298828125,6.160408020019531,-1.979403018951416,5.197811126708984
1667255032803257600,4.834257568359375,6.111832618713379,-2.0470147132873535,5.260873794555664
1667255032808216300,4.83921630859375,6.049343109130859,-2.1196372509002686,5.33994197845459
1667255032813174800,4.8441748046875,5.989604949951172,-2.182791233062744,5.395682334899902
1667255032818133500,4.849133544921875,5.918237686157227,-2.251967668533325,5.462800979614258
1667255032823092000,4.854092041015625,5.832841873168945,-2.3126721382141113,5.522111892700195
1667255032828050700,4.85905078125,5.775181770324707,-2.3756372928619385,5.583313941955566
1667255032833009400,4.864009521484375,5.716489791870117,-2.4396982192993164,5.628595352172852
1667255032837968000,4.8689677734375,5.651926040649414,-2.5227339267730713,5.691576957702637
1667255032842926600,4.873926513671875,5.597003936767578,-2.598386764526367,5.76030158996582
1667255032847885000,4.878885009765625,5.550511360168457,-2.6595935821533203,5.849134922027588
1667255032852843800,4.88384375,5.520796775817871,-2.7422261238098145,5.916221618652344
1667255032857802200,4.88880224609375,5.434954643249512,-2.808013439178467,5.967511177062988
1667255032862761000,4.893760986328125,5.277552604675293,-2.8569304943084717,5.992075443267822
1667255032867719700,4.8987197265625,5.106103897094727,-2.9104113578796387,6.014618873596191
1667255032872678100,4.90367822265625,4.9445295333862305,-2.9695682525634766,6.037312984466553
1667255032877636900,4.908636962890625,4.7737321853637695,-3.015280246734619,6.050283432006836
1667255032882595300,4.91359521484375,4.574593544006348,-3.0665767192840576,6.035360336303711
1667255032887554000,4.918553955078125,4.386528968811035,-3.121037006378174,6.023624420166016
1667255032892512800,4.9235126953125,4.220248222351074,-3.173893928527832,6.018576622009277
1667255032897471200,4.92847119140625,4.0828046798706055,-3.213092088699341,6.036996364593506
1667255032902430000,4.933429931640625,4.014760971069336,-3.2782042026519775,6.0956711769104
1667255032907388700,4.938388671875,4.001644134521484,-3.332174062728882,6.174263000488281
1667255032912347100,4.94334716796875,4.0218353271484375,-3.4037160873413086,6.266833782196045
1667255032917305900,4.948305908203125,4.045385360717773,-3.4426727294921875,6.353139400482178
1667255032922264300,4.953264404296875,4.011347770690918,-3.500553607940674,6.433076858520508
1667255032927223000,4.95822314453125,3.944857597351074,-3.5665459632873535,6.467127799987793
1667255032932181800,4.963181640625,3.8172731399536133,-3.6216039657592773,6.507816791534424
1667255032937140200,4.96814013671875,3.696761131286621,-3.6430084705352783,6.515465259552002
1667255032942099000,4.973098876953125,3.5474491119384766,-3.6822752952575684,6.5104217529296875
1667255032947057400,4.978057373046875,3.392047882080078,-3.735808849334717,6.509302616119385
1667255032952016100,4.98301611328125,3.237751007080078,-3.782271146774292,6.47979211807251
1667255032956974600,4.987974609375,3.1251649856567383,-3.8384835720062256,6.504473686218262
1667255032961933300,4.992933349609375,3.0386648178100586,-3.8984575271606445,6.525959491729736
1667255032966892000,4.99789208984375,2.9626941680908203,-3.94321608543396,6.564596176147461
1667255032971850500,5.0028505859375,2.9474124908447266,-3.9955241680145264,6.6346659660339355
1667255032976809200,5.007809326171875,2.9318017959594727,-4.043517112731934,6.6858811378479
1667255032981767700,5.012767578125,2.905062675476074,-4.090733051300049,6.7385759353637695
1667255032986726400,5.017726318359375,2.833730697631836,-4.1240644454956055,6.782024383544922
1667255032991685000,5.02268505859375,2.7118749618530273,-4.163891315460205,6.788687705993652
1667255032996643600,5.0276435546875,2.5658140182495117,-4.195844650268555,6.765828609466553
1667255033001602300,5.032602294921875,2.4182510375976562,-4.213949203491211,6.729132652282715
1667255033006561000,5.03756103515625,2.2680206298828125,-4.251832008361816,6.727544784545898
1667255033011519500,5.04251953125,2.10552978515625,-4.29626989364624,6.715746879577637
1667255033016478200,5.047478271484375,1.9630212783813477,-4.314940929412842,6.685473442077637
1667255033021436700,5.052436767578125,1.8201894760131836,-4.35102653503418,6.64871883392334
1667255033026395400,5.0573955078125,1.6710090637207031,-4.374539375305176,6.635353088378906
1667255033031353900,5.062353759765625,1.5286283493041992,-4.402272701263428,6.629733085632324
1667255033036312600,5.0673125,1.4073753356933594,-4.436666011810303,6.627009391784668
1667255033041271300,5.072271240234375,1.3083257675170898,-4.473955154418945,6.62228536605835
1667255033046229800,5.077229736328125,1.2183599472045898,-4.4820427894592285,6.622824668884277
1667255033051188500,5.0821884765625,1.1111202239990234,-4.51350212097168,6.64036750793457
1667255033056147000,5.08714697265625,0.9949569702148438,-4.547982215881348,6.621033191680908
1667255033061105700,5.092105712890625,0.8686323165893555,-4.569907188415527,6.602977275848389
1667255033066064400,5.097064453125,0.7333412170410156,-4.586523532867432,6.587350368499756
1667255033071022800,5.10202294921875,0.6225252151489258,-4.608575820922852,6.559852600097656
1667255033075981600,5.106981689453125,0.5278072357177734,-4.63734769821167,6.576715469360352
1667255033080940000,5.11193994140625,0.4933347702026367,-4.671619415283203,6.600739479064941
1667255033085898800,5.116898681640625,0.4580812454223633,-4.710206985473633,6.6308159828186035
1667255033090857500,5.121857421875,0.44592952728271484,-4.7328877449035645,6.634446620941162
1667255033095816000,5.12681591796875,0.38268470764160156,-4.756261825561523,6.670298099517822
1667255033100774700,5.131774658203125,0.31261634826660156,-4.791194438934326,6.664101600646973
1667255033105733400,5.1367333984375,0.20456790924072266,-4.805260181427002,6.650536060333252
1667255033110691800,5.14169189453125,0.07403850555419922,-4.812755107879639,6.6271257400512695
1667255033115650600,5.146650634765625,-0.08968830108642578,-4.814988613128662,6.572347640991211
1667255033120609000,5.151609130859375,-0.2962312698364258,-4.833395004272461,6.482508659362793
1667255033125567700,5.156567626953125,-0.5157012939453125,-4.837985992431641,6.402055263519287
1667255033130526200,5.161526123046875,-0.7541065216064453,-4.8359575271606445,6.293839454650879
1667255033135485000,5.16648486328125,-0.9684262275695801,-4.840459823608398,6.202176094055176
1667255033140443600,5.171443603515625,-1.1766996383666992,-4.870474815368652,6.123488426208496
1667255033145402000,5.176402099609375,-1.3550100326538086,-4.848377704620361,6.063836097717285
1667255033150360800,5.18136083984375,-1.504678726196289,-4.862575531005859,6.0159382820129395
1667255033155319300,5.1863193359375,-1.634129524230957,-4.872418403625488,5.98216438293457
1667255033160278000,5.191278076171875,-1.7028107643127441,-4.870702743530273,5.950552463531494
1667255033165236700,5.19623681640625,-1.728729248046875,-4.876590728759766,5.941449165344238
1667255033170195200,5.2011953125,-1.7274599075317383,-4.898534774780273,5.971540451049805
1667255033175154000,5.20615380859375,-1.695509433746338,-4.929267883300781,6.006162643432617
1667255033180112400,5.2111123046875,-1.6867146492004395,-4.943659782409668,6.01310396194458
1667255033185071000,5.216071044921875,-1.6902985572814941,-4.940557479858398,6.037849426269531
1667255033190029800,5.22102978515625,-1.7420921325683594,-4.945098876953125,6.051753997802734
1667255033194988300,5.22598828125,-1.8133974075317383,-4.948899745941162,6.030898094177246
1667255033199947000,5.230947021484375,-1.897059440612793,-4.975822448730469,5.977724075317383
1667255033204905500,5.235905517578125,-1.9787368774414062,-4.9661078453063965,5.937697410583496
1667255033209864200,5.2408642578125,-2.0870747566223145,-4.972447395324707,5.909673690795898
1667255033214822700,5.24582275390625,-2.194638252258301,-4.966071128845215,5.840996742248535
1667255033219781400,5.250781494140625,-2.3181471824645996,-4.966179370880127,5.811758041381836
1667255033224740000,5.255739990234375,-2.4253740310668945,-4.978717803955078,5.768066883087158
1667255033229698600,5.260698486328125,-2.521124839782715,-4.965508937835693,5.726589679718018
1667255033234657300,5.2656572265625,-2.6042556762695312,-4.974344253540039,5.687337875366211
1667255033239616000,5.270615966796875,-2.670060634613037,-4.969319820404053,5.651434898376465
1667255033244574500,5.275574462890625,-2.731781005859375,-4.989888668060303,5.624678134918213
1667255033249533200,5.280533203125,-2.7727298736572266,-4.996605396270752,5.597414970397949
1667255033254491600,5.28549169921875,-2.792917251586914,-4.9943342208862305,5.611473560333252
1667255033259450400,5.290450439453125,-2.7996106147766113,-5.003284454345703,5.610672950744629
1667255033264409000,5.2954091796875,-2.7904443740844727,-5.008005619049072,5.602066993713379
1667255033269367600,5.300367431640625,-2.766648292541504,-5.009670257568359,5.616794586181641
1667255033274326300,5.305326171875,-2.7438302040100098,-5.015378952026367,5.644070148468018
1667255033279284700,5.31028466796875,-2.723094940185547,-5.009712219238281,5.634995460510254
1667255033284243500,5.315243408203125,-2.7439513206481934,-4.999725818634033,5.612334728240967
1667255033289202200,5.3202021484375,-2.773998260498047,-5.01301383972168,5.597725868225098
1667255033294160600,5.32516064453125,-2.8431057929992676,-4.9981255531311035,5.568513870239258
1667255033299119400,5.330119384765625,-2.8974595069885254,-4.999323844909668,5.529484748840332
1667255033304077800,5.335077880859375,-2.956160545349121,-5.014202117919922,5.496298789978027
1667255033309036500,5.34003662109375,-3.0216126441955566,-4.9937310218811035,5.443851470947266
1667255033313995300,5.344995361328125,-3.1081314086914062,-4.994117736816406,5.382967948913574
1667255033318953700,5.34995361328125,-3.201320171356201,-4.989041805267334,5.340059280395508
1667255033323912400,5.354912353515625,-3.2916107177734375,-4.966621398925781,5.2946929931640625
1667255033328871000,5.359870849609375,-3.340786933898926,-4.955461502075195,5.219502925872803
1667255033333829600,5.36482958984375,-3.385873317718506,-4.953242301940918,5.187476634979248
1667255033338788400,5.369788330078125,-3.4364356994628906,-4.951624870300293,5.165029525756836
1667255033343746800,5.374746826171875,-3.460233688354492,-4.946901321411133,5.128374099731445
1667255033348705500,5.37970556640625,-3.478740692138672,-4.933218955993652,5.131293773651123
1667255033353664000,5.3846640625,-3.488375186920166,-4.921269416809082,5.102168083190918
1667255033358622700,5.389622802734375,-3.486776351928711,-4.921770095825195,5.088828086853027
1667255033363581400,5.39458154296875,-3.4918479919433594,-4.919223785400391,5.049435615539551
1667255033368540000,5.399539794921875,-3.4904165267944336,-4.910044193267822,5.036655426025391
1667255033373498600,5.40449853515625,-3.49442720413208,-4.899052619934082,5.028910160064697
1667255033378457000,5.40945703125,-3.5134458541870117,-4.896966934204102,5.015445709228516
1667255033383415800,5.414415771484375,-3.5259695053100586,-4.903805732727051,4.990149974822998
1667255033388374300,5.419374267578125,-3.524825096130371,-4.890872955322266,4.959037780761719
1667255033393333000,5.4243330078125,-3.53751277923584,-4.873779773712158,4.929166316986084
1667255033398291700,5.429291748046875,-3.51865816116333,-4.8692498207092285,4.936211585998535
1667255033403250200,5.434250244140625,-3.45877742767334,-4.876065254211426,4.953705787658691
1667255033408209000,5.439208984375,-3.383024215698242,-4.881069183349609,4.973186492919922
1667255033413167600,5.444167724609375,-3.2639551162719727,-4.871130466461182,5.017228126525879
1667255033418126000,5.4491259765625,-3.13749361038208,-4.864164352416992,5.0713701248168945
1667255033423084800,5.454084716796875,-3.002452850341797,-4.874532222747803,5.0936689376831055
1667255033428043300,5.459043212890625,-2.8934860229492188,-4.869949817657471,5.136685371398926
1667255033433002000,5.464001953125,-2.8105430603027344,-4.863585948944092,5.174062728881836
1667255033437960700,5.468960693359375,-2.746440887451172,-4.83625602722168,5.181876182556152
1667255033442919200,5.473919189453125,-2.692734718322754,-4.848906517028809,5.148343563079834
1667255033447878000,5.4788779296875,-2.657742977142334,-4.814293384552002,5.151120185852051
1667255033452836400,5.48383642578125,-2.607966423034668,-4.813613414764404,5.142533302307129
1667255033457795000,5.488795166015625,-2.6078567504882812,-4.787148952484131,5.101171493530273
1667255033462753800,5.49375390625,-2.608336925506592,-4.782655239105225,5.057062149047852
1667255033467712300,5.498712158203125,-2.636843204498291,-4.754738807678223,5.00658655166626
1667255033472671000,5.5036708984375,-2.658745288848877,-4.73552131652832,4.982013702392578
1667255033477629400,5.50862939453125,-2.6644344329833984,-4.697591781616211,4.9294538497924805
1667255033482588200,5.513588134765625,-2.6395459175109863,-4.680438995361328,4.9122314453125
1667255033487546600,5.518546630859375,-2.5889453887939453,-4.680304050445557,4.8836517333984375
1667255033492505300,5.52350537109375,-2.531712532043457,-4.662585258483887,4.881922721862793
1667255033497464000,5.528464111328125,-2.4713993072509766,-4.6332244873046875,4.872474193572998
1667255033502422500,5.533422607421875,-2.360135078430176,-4.612551212310791,4.880556106567383
1667255033507381200,5.53838134765625,-2.2205982208251953,-4.602968215942383,4.890785217285156
1667255033512340000,5.543340087890625,-2.0802412033081055,-4.582902431488037,4.903413772583008
1667255033517298400,5.54829833984375,-1.9473180770874023,-4.563198089599609,4.913883209228516
1667255033522257200,5.553257080078125,-1.7870893478393555,-4.542623996734619,4.935699462890625
1667255033527215600,5.558215576171875,-1.6173944473266602,-4.543942451477051,4.981181621551514
1667255033532174300,5.56317431640625,-1.4573297500610352,-4.530041694641113,5.002771854400635
1667255033537133000,5.568133056640625,-1.3199663162231445,-4.50813102722168,5.0079545974731445
1667255033542091500,5.573091552734375,-1.2040166854858398,-4.489071846008301,5.008814811706543
1667255033547050200,5.57805029296875,-1.1058549880981445,-4.462138652801514,5.006569862365723
1667255033552008700,5.5830087890625,-0.9979991912841797,-4.469143867492676,5.027434349060059
1667255033556967400,5.587967529296875,-0.8410234451293945,-4.438403606414795,5.049740314483643
1667255033561926000,5.59292578125,-0.7007346153259277,-4.416556358337402,5.085252285003662
1667255033566884600,5.597884521484375,-0.5508136749267578,-4.402503967285156,5.107287406921387
1667255033571843300,5.60284326171875,-0.4163856506347656,-4.391450881958008,5.1442718505859375
1667255033576801800,5.6078017578125,-0.31657981872558594,-4.357058525085449,5.150500297546387
1667255033581760500,5.612760498046875,-0.21188735961914062,-4.33288049697876,5.155661582946777
1667255033586719000,5.617718994140625,-0.12383174896240234,-4.304518699645996,5.1714653968811035
1667255033591677700,5.622677734375,-0.030872344970703125,-4.274330139160156,5.15482234954834
1667255033596636400,5.627636474609375,0.06106758117675781,-4.232823848724365,5.155825614929199
1667255033601595000,5.632594970703125,0.12688541412353516,-4.2037763595581055,5.131580352783203
1667255033606553600,5.6375537109375,0.15710067749023438,-4.153738975524902,5.0939459800720215
1667255033611512300,5.64251220703125,0.14577102661132812,-4.12800407409668,5.050161361694336
1667255033616470800,5.647470703125,0.1336212158203125,-4.073995113372803,4.978483200073242
1667255033621429500,5.652429443359375,0.15175342559814453,-4.033548355102539,4.896599292755127
1667255033626388000,5.657387939453125,0.18699932098388672,-3.998178005218506,4.8939619064331055
1667255033631346700,5.6623466796875,0.2836151123046875,-3.966682195663452,4.886692523956299
1667255033636305400,5.667305419921875,0.4189004898071289,-3.930720806121826,4.87099552154541
1667255033641263900,5.672263916015625,0.5546188354492188,-3.894998073577881,4.8756279945373535
1667255033646222600,5.67722265625,0.6884546279907227,-3.8583192825317383,4.885188102722168
1667255033651181000,5.68218115234375,0.8491601943969727,-3.8278560638427734,4.884326457977295
1667255033656139800,5.687139892578125,1.0343446731567383,-3.764115571975708,4.898623466491699
1667255033661098200,5.69209814453125,1.2703266143798828,-3.729342460632324,4.918957710266113
1667255033666057000,5.697056884765625,1.529587745666504,-3.6948728561401367,4.9530439376831055
1667255033671015700,5.702015625,1.7893829345703125,-3.6738314628601074,5.016904830932617
1667255033675974100,5.70697412109375,2.042562484741211,-3.64837646484375,5.04150390625
1667255033680932900,5.711932861328125,2.2472801208496094,-3.6017022132873535,5.062892436981201
1667255033685891300,5.716891357421875,2.4179601669311523,-3.566213846206665,5.0620574951171875
1667255033690850000,5.72185009765625,2.558267593383789,-3.5145177841186523,5.070015907287598
1667255033695808800,5.726808837890625,2.688547134399414,-3.463292121887207,5.053162574768066
1667255033700767200,5.731767333984375,2.781367301940918,-3.4197287559509277,5.025633335113525
1667255033705726000,5.736725830078125,2.8666954040527344,-3.3779091835021973,4.995667457580566
1667255033710684700,5.7416845703125,2.973250389099121,-3.3234927654266357,4.966744422912598
1667255033715643100,5.74664306640625,3.071138381958008,-3.2778711318969727,4.941100120544434
1667255033720601900,5.751601806640625,3.16751766204834,-3.208768606185913,4.914205074310303
1667255033725560300,5.756560302734375,3.281500816345215,-3.1532645225524902,4.876664161682129
1667255033730519000,5.76151904296875,3.374797821044922,-3.0873894691467285,4.83701229095459
1667255033735477500,5.7664775390625,3.4844846725463867,-3.0397982597351074,4.802384376525879
1667255033740436200,5.771436279296875,3.559144973754883,-2.972179651260376,4.7549262046813965
1667255033745395000,5.77639501953125,3.6311330795288086,-2.890434741973877,4.707535743713379
1667255033750353400,5.781353515625,3.6885738372802734,-2.818479537963867,4.675532341003418
1667255033755312000,5.78631201171875,3.7375402450561523,-2.7479686737060547,4.620463848114014
1667255033760270600,5.7912705078125,3.7983922958374023,-2.688297986984253,4.578079700469971
1667255033765229300,5.796229248046875,3.893878936767578,-2.610844612121582,4.51848030090332
1667255033770188000,5.80118798828125,3.9833335876464844,-2.5574333667755127,4.4848198890686035
1667255033775146500,5.806146484375,4.125300407409668,-2.4934027194976807,4.466531753540039
1667255033780105200,5.811105224609375,4.299368858337402,-2.433077335357666,4.451850891113281
1667255033785064000,5.81606396484375,4.487523078918457,-2.3668670654296875,4.475682258605957
1667255033790022400,5.8210224609375,4.7100830078125,-2.323594570159912,4.485467910766602
1667255033794981000,5.825981201171875,4.955076217651367,-2.254288673400879,4.539795875549316
1667255033799939600,5.830939697265625,5.19624137878418,-2.1864960193634033,4.571602821350098
1667255033804898300,5.835898193359375,5.407462120056152,-2.1346139907836914,4.604410171508789
1667255033809857000,5.84085693359375,5.570971488952637,-2.078369617462158,4.616495132446289
1667255033814815500,5.8458154296875,5.691816329956055,-2.0035572052001953,4.58355712890625
1667255033819774200,5.850774169921875,5.758252143859863,-1.9483399391174316,4.543610572814941
1667255033824732700,5.855732666015625,5.770427703857422,-1.8781126737594604,4.442861557006836
1667255033829691400,5.86069140625,5.7678680419921875,-1.7881429195404053,4.3376617431640625
1667255033834649900,5.86564990234375,5.755255699157715,-1.7202095985412598,4.216494560241699
1667255033839608600,5.870608642578125,5.752780914306641,-1.644561529159546,4.115691184997559
1667255033844567300,5.8755673828125,5.800895690917969,-1.544341802597046,4.022520065307617
1667255033849525800,5.88052587890625,5.888628005981445,-1.4745583534240723,3.949312925338745
1667255033854484500,5.885484375,5.983530044555664,-1.3873331546783447,3.8832221031188965
1667255033859443000,5.89044287109375,6.069980621337891,-1.2911571264266968,3.8160505294799805
1667255033864401700,5.895401611328125,6.143210411071777,-1.211012601852417,3.747772693634033
1667255033869360400,5.9003603515625,6.205559730529785,-1.1361722946166992,3.690474033355713
1667255033874318800,5.90531884765625,6.292854309082031,-1.047476053237915,3.6238908767700195
1667255033879277600,5.910277587890625,6.395402908325195,-0.9750540256500244,3.5936107635498047
1667255033884236300,5.915236328125,6.536945343017578,-0.8912215232849121,3.5460548400878906
1667255033889194800,5.92019482421875,6.668356895446777,-0.8008702993392944,3.504056930541992
1667255033894153500,5.925153564453125,6.8145856857299805,-0.7363852858543396,3.4905447959899902
1667255033899112000,5.93011181640625,6.9492902755737305,-0.657111406326294,3.450511932373047
1667255033904070700,5.935070556640625,7.0820159912109375,-0.571563184261322,3.4186172485351562
1667255033909029000,5.940029052734375,7.247501373291016,-0.5086101293563843,3.431666851043701
1667255033913987800,5.94498779296875,7.382572174072266,-0.43837618827819824,3.3995938301086426
1667255033918946600,5.949946533203125,7.454067230224609,-0.36574363708496094,3.384127616882324
1667255033923905000,5.954905029296875,7.4886884689331055,-0.2741069793701172,3.3177595138549805
1667255033928863700,5.95986376953125,7.489189147949219,-0.20648467540740967,3.2729663848876953
1667255033933822200,5.964822265625,7.492898941040039,-0.12349998950958252,3.1728997230529785
1667255033938781000,5.969781005859375,7.4915666580200195,-0.03347969055175781,3.0736823081970215
1667255033943739600,5.97473974609375,7.470844268798828,0.04194819927215576,2.981358051300049
1667255033948698000,5.979697998046875,7.465363502502441,0.13972067832946777,2.8661441802978516
1667255033953656800,5.98465673828125,7.4523091316223145,0.2193378210067749,2.7581734657287598
1667255033958615600,5.989615478515625,7.489085674285889,0.31059837341308594,2.680109977722168
1667255033963574000,5.994573974609375,7.53487491607666,0.3872101306915283,2.616616725921631
1667255033968532700,5.99953271484375,7.615972518920898,0.48133909702301025,2.5521202087402344
1667255033973491200,6.0044912109375,7.703515529632568,0.5595895051956177,2.5203351974487305
1667255033978450000,6.009449951171875,7.797408103942871,0.6350959539413452,2.4436798095703125
1667255033983408400,6.014408447265625,7.893733501434326,0.7209422588348389,2.389542579650879
1667255033988367000,6.0193671875,7.995733261108398,0.8147823810577393,2.321284770965576
1667255033993325800,6.024325927734375,8.104186058044434,0.9021108150482178,2.262047290802002
1667255033998284300,6.0292841796875,8.187564849853516,0.975855827331543,2.197993278503418
1667255034003243000,6.034242919921875,8.221670150756836,1.0754313468933105,2.113893508911133
1667255034008201500,6.039201416015625,8.214591979980469,1.1660740375518799,2.012418270111084
1667255034013160200,6.04416015625,8.155488967895508,1.2418570518493652,1.8769216537475586
1667255034018119000,6.049118896484375,8.049222946166992,1.332619309425354,1.7228302955627441
1667255034023077400,6.054077392578125,7.9424729347229,1.4143866300582886,1.572725772857666
1667255034028036000,6.0590361328125,7.805593013763428,1.4990530014038086,1.4262347221374512
1667255034032994600,6.06399462890625,7.667609214782715,1.5866203308105469,1.2853350639343262
1667255034037953300,6.068953369140625,7.524073123931885,1.6603474617004395,1.1520028114318848
1667255034042912000,6.073912109375,7.434998035430908,1.7572345733642578,1.0462064743041992
1667255034047870500,6.078870361328125,7.408836841583252,1.8390703201293945,0.9390735626220703
1667255034052829200,6.0838291015625,7.401334285736084,1.9165875911712646,0.8723526000976562
1667255034057788000,6.088787841796875,7.406534194946289,1.996915340423584,0.8064846992492676
1667255034062746400,6.093746337890625,7.3802690505981445,2.086056709289551,0.7473821640014648
1667255034067705000,6.098705078125,7.3762407302856445,2.1540842056274414,0.6353654861450195
1667255034072663600,6.10366357421875,7.351460933685303,2.2177155017852783,0.5683956146240234
1667255034077622300,6.108622314453125,7.329792022705078,2.315286636352539,0.4652547836303711
1667255034082580700,6.113580810546875,7.280114650726318,2.3905084133148193,0.37735557556152344
1667255034087539500,6.11853955078125,7.221555709838867,2.462592363357544,0.26767778396606445
1667255034092498200,6.123498291015625,7.167159557342529,2.547110080718994,0.1710071563720703
1667255034097456600,6.12845654296875,7.116732597351074,2.6188557147979736,0.09458780288696289
1667255034102415400,6.133415283203125,7.12626314163208,2.697021245956421,0.0038909912109375
1667255034107373800,6.138373779296875,7.152440547943115,2.7839455604553223,-0.05672645568847656
1667255034112332500,6.14333251953125,7.197442531585693,2.8437538146972656,-0.11467647552490234
1667255034117291300,6.148291259765625,7.216803550720215,2.911116361618042,-0.1817789077758789
1667255034122249700,6.153249755859375,7.143611907958984,2.993195056915283,-0.2676124572753906
1667255034127208400,6.15820849609375,7.025742053985596,3.068464517593384,-0.41638612747192383
1667255034132167200,6.163167236328125,6.89786958694458,3.1368069648742676,-0.5301365852355957
1667255034137125600,6.168125732421875,6.785210609436035,3.207746982574463,-0.654475212097168
1667255034142084400,6.17308447265625,6.704684257507324,3.257448673248291,-0.7405657768249512
1667255034147042800,6.178042724609375,6.6528754234313965,3.3193247318267822,-0.7934699058532715
1667255034152001500,6.18300146484375,6.646590709686279,3.38136625289917,-0.8539962768554688
1667255034156960000,6.1879599609375,6.6535749435424805,3.4339468479156494,-0.9103026390075684
1667255034161918700,6.192918701171875,6.68577766418457,3.4986395835876465,-0.9564266204833984
1667255034166877400,6.19787744140625,6.6893110275268555,3.5550599098205566,-0.9852099418640137
1667255034171836000,6.2028359375,6.673651695251465,3.6128382682800293,-1.0503511428833008
1667255034176794600,6.207794677734375,6.620822906494141,3.6910762786865234,-1.1267004013061523
1667255034181753000,6.212753173828125,6.549848556518555,3.743150234222412,-1.2201519012451172
1667255034186711800,6.2177119140625,6.439122676849365,3.809805393218994,-1.3508973121643066
1667255034191670500,6.22267041015625,6.271859645843506,3.8814234733581543,-1.474668025970459
1667255034196629000,6.22762890625,6.086359024047852,3.9676320552825928,-1.640449047088623
1667255034201587700,6.232587646484375,5.882498264312744,4.045688629150391,-1.7788410186767578
1667255034206546200,6.237546142578125,5.670966625213623,4.104939937591553,-1.9208674430847168
1667255034211505000,6.2425048828125,5.466139316558838,4.166876792907715,-2.0869193077087402
1667255034216463600,6.247463623046875,5.302612781524658,4.21603536605835,-2.2267394065856934
1667255034221422000,6.252422119140625,5.176693439483643,4.285882949829102,-2.3284196853637695
1667255034226380800,6.257380859375,5.072670936584473,4.347677707672119,-2.4362058639526367
1667255034231339500,6.262339599609375,5.02262020111084,4.393110752105713,-2.5117735862731934
1667255034236298000,6.267298095703125,5.032460689544678,4.452073097229004,-2.5420703887939453
1667255034241256700,6.272256591796875,5.081813812255859,4.494694709777832,-2.5451126098632812
1667255034246215200,6.277215087890625,5.185995578765869,4.523266315460205,-2.534113883972168
1667255034251174000,6.282173828125,5.303112983703613,4.553356170654297,-2.491201877593994
1667255034256132400,6.28713232421875,5.411563873291016,4.599225997924805,-2.461884021759033
1667255034261091000,6.292091064453125,5.445753574371338,4.621422290802002,-2.459397792816162
1667255034266049800,6.2970498046875,5.424958229064941,4.654586315155029,-2.48740291595459
1667255034271008300,6.30200830078125,5.352994918823242,4.704653739929199,-2.562732219696045
1667255034275967000,6.306967041015625,5.270668983459473,4.7429518699646,-2.6244616508483887
1667255034280925400,6.311925537109375,5.14228630065918,4.790976047515869,-2.7133569717407227
1667255034285884200,6.31688427734375,5.000214576721191,4.834375858306885,-2.795980930328369
1667255034290843000,6.3218427734375,4.8827223777771,4.881558895111084,-2.8974409103393555
1667255034295801300,6.32680126953125,4.750375270843506,4.909785270690918,-2.9962692260742188
