time,seconds_elapsed,z,y,x
1667255160676683500,0.00268359375,6.168696880340576,4.479363918304443,7.133004188537598
1667255160679163000,0.005162841796875,6.197410583496094,4.510470867156982,7.200003147125244
1667255160681642000,0.00764208984375,6.223731517791748,4.508078098297119,7.259823799133301
1667255160684121300,0.010121337890625,5.735595703125,4.493721008300781,7.307680130004883
1667255160686600700,0.0126005859375,5.242674350738525,4.529613494873047,7.135396957397461
1667255160689079800,0.015079833984375,5.168497085571289,4.587040901184082,6.9344000816345215
1667255160691559200,0.01755908203125,5.3694939613342285,4.718646049499512,6.91765022277832
1667255160694038300,0.020038330078125,5.529813289642334,4.838287353515625,7.037291526794434
1667255160696517600,0.022517578125,5.587240695953369,5.048855781555176,7.295716285705566
1667255160698997000,0.0249970703125,5.615954875946045,5.278566837310791,7.609176158905029
1667255160701476000,0.02747607421875,5.642275810241699,5.5034918785095215,7.903493404388428
1667255160703955500,0.02995556640625,5.630311489105225,5.6446685791015625,8.149953842163086
1667255160706434800,0.032434814453125,5.548955917358398,5.694917678833008,8.382058143615723
1667255160708914000,0.034913818359375,5.3934221267700195,5.723631858825684,8.554341316223145
1667255160711393300,0.037393310546875,5.254638671875,5.7547383308410645,8.69791030883789
1667255160713872400,0.039872314453125,5.120640277862549,5.747560024261475,8.803194046020508
1667255160716351700,0.042351806640625,5.051248550415039,5.711667537689209,8.846264839172363
1667255160718831000,0.0448310546875,5.0225348472595215,5.709274768829346,8.824729919433594
1667255160721310200,0.047310302734375,4.95074987411499,5.726024627685547,8.827122688293457
1667255160723789600,0.04978955078125,4.919643402099609,5.72841739654541,8.824729919433594
1667255160726269000,0.05226904296875,4.917250633239746,5.759523868560791,8.812766075134277
1667255160728748000,0.054748046875,4.9435715675354,5.766702651977539,8.812766075134277
1667255160731227400,0.057227294921875,4.948357105255127,5.682953834533691,8.726624488830566
1667255160733706500,0.05970654296875,4.907679080963135,5.599205017089844,8.60459041595459
1667255160736185900,0.062185791015625,4.9124650955200195,5.513063430786133,8.511270523071289
1667255160738665200,0.064665283203125,4.917250633239746,5.460421085357666,8.504091262817383
1667255160741144300,0.067144287109375,4.752145767211914,5.429314613342285,8.583054542541504
1667255160743623700,0.069623779296875,4.292723655700684,5.3694939613342285,8.748159408569336
1667255160746102800,0.072102783203125,2.407179594039917,5.0943193435668945,9.123832702636719
1667255160748582100,0.07458203125,1.7060825824737549,4.95074987411499,9.44447135925293
1667255160751061500,0.0770615234375,2.500499725341797,4.955535888671875,9.616754531860352
1667255160753540600,0.07954052734375,2.737389087677002,4.917250633239746,9.774680137634277
1667255160756020000,0.08202001953125,2.3545374870300293,4.790431022644043,9.865608215332031
1667255160758499300,0.084499267578125,2.5770699977874756,4.778466701507568,9.963713645935059
1667255160760978400,0.086978515625,2.9240293502807617,4.754538536071777,9.942177772521973
1667255160763457800,0.089457763671875,3.4097721576690674,4.752145767211914,9.829715728759766
1667255160765937000,0.09193701171875,4.254438877105713,4.761716842651367,9.547362327575684
1667255160768416300,0.094416259765625,5.443671703338623,4.78803825378418,9.028120040893555
1667255160770895600,0.0968955078125,6.5252275466918945,4.783252239227295,8.35573673248291
1667255160773374700,0.099374755859375,7.17368221282959,4.677968502044678,7.5804619789123535
1667255160775854000,0.10185400390625,7.410571575164795,4.417150497436523,6.711867332458496
1667255160778333200,0.104333251953125,6.920042991638184,4.043870449066162,5.79063081741333
1667255160780812500,0.1068125,5.474778175354004,3.5509488582611084,5.027320384979248
1667255160783292000,0.1092919921875,3.5437703132629395,3.0867412090301514,4.4243292808532715
1667255160785771000,0.11177099609375,1.8544375896453857,2.799602508544922,3.9625144004821777
1667255160788250400,0.11425048828125,0.6628118753433228,2.825923442840576,3.696911096572876
1667255160790729700,0.116729736328125,-0.019142581149935722,3.067598581314087,3.658625841140747
1667255160793208800,0.119208740234375,-0.2799602448940277,3.469592809677124,3.926621913909912
1667255160795688200,0.121688232421875,-0.19381862878799438,3.94815731048584,4.565505504608154
1667255160798167300,0.124167236328125,0.15074782073497772,4.460221290588379,5.515456199645996
1667255160800646700,0.126646728515625,0.6317051649093628,4.969892501831055,6.608976364135742
1667255160803126000,0.1291259765625,1.210768222808838,5.4556355476379395,7.690532207489014
1667255160805605000,0.131605224609375,1.7802600860595703,5.826523303985596,8.566305160522461
1667255160808084500,0.13408447265625,2.251646041870117,6.0610198974609375,9.176474571228027
1667255160810563600,0.1365634765625,2.6249263286590576,6.185446739196777,9.511469841003418
1667255160813043000,0.13904296875,2.9599215984344482,6.233303070068359,9.619147300720215
1667255160815522300,0.141522216796875,3.2829527854919434,6.199803352355957,9.542576789855957
1667255160818001400,0.14400146484375,3.5533416271209717,6.096911907196045,9.351150512695312
1667255160820480800,0.146480712890625,3.730410575866699,5.941378593444824,9.123832702636719
1667255160822960000,0.148960205078125,3.845266103744507,5.836094379425049,8.920442581176758
1667255160825439200,0.151439208984375,3.9529430866241455,5.802595138549805,8.772088050842285
1667255160827918600,0.153918701171875,4.074976921081543,5.857629776000977,8.669196128845215
1667255160830397700,0.156397705078125,4.206582069396973,5.972485542297363,8.63330364227295
1667255160832877000,0.158876953125,4.328616142272949,6.0849480628967285,8.616554260253906
1667255160835356400,0.1613564453125,4.429114818572998,6.166304111480713,8.585447311401367
1667255160837835500,0.16383544921875,4.460221290588379,6.214160442352295,8.575876235961914
1667255160840315000,0.16631494140625,4.429114818572998,6.209374904632568,8.623732566833496
1667255160842794200,0.168794189453125,4.40757942199707,6.166304111480713,8.719446182250977
1667255160845273300,0.1712734375,4.271188259124756,6.044270038604736,8.86062240600586
1667255160847752700,0.173752685546875,3.900300979614258,5.6925249099731445,8.910871505737305
1667255160850231800,0.176231689453125,3.744767427444458,5.31685209274292,8.989834785461426
1667255160852711200,0.178711181640625,3.8045880794525146,4.996213912963867,9.08554744720459
1667255160855190500,0.1811904296875,3.7567315101623535,4.7234320640563965,9.21715259552002
1667255160857669600,0.183669677734375,3.7232320308685303,4.603790760040283,9.353543281555176
1667255160860149000,0.18614892578125,3.713660717010498,4.639683246612549,9.410971641540527
1667255160862628400,0.18862841796875,3.6993038654327393,4.742574691772461,9.34875774383545
1667255160865107500,0.191107421875,3.6993038654327393,4.895715236663818,9.20279598236084
1667255160867586800,0.1935869140625,3.658625841140747,5.06799840927124,9.001798629760742
1667255160870066200,0.196066162109375,3.6299118995666504,5.221138954162598,8.7505521774292
1667255160872545300,0.198545166015625,3.6131622791290283,5.333601474761963,8.544769287109375
1667255160875024600,0.201024658203125,3.601198196411133,5.402993679046631,8.394021987915039
1667255160877503700,0.203503662109375,3.6083765029907227,5.453242778778076,8.293522834777832
1667255160879983000,0.205983154296875,3.713660717010498,5.458028316497803,8.14516830444336
1667255160882462500,0.20846240234375,3.7950167655944824,5.374279499053955,8.0350980758667
1667255160884941600,0.210941650390625,3.8596229553222656,5.2115678787231445,7.929814338684082
1667255160887421000,0.2134208984375,4.019941806793213,5.072783946990967,7.841279983520508
1667255160889900000,0.215900146484375,4.247260093688965,4.941178798675537,7.740781307220459
1667255160892379400,0.21837939453125,4.491328239440918,4.847858905792236,7.652246952056885
1667255160894858800,0.220858642578125,4.706682205200195,4.764110088348389,7.539783954620361
1667255160897337900,0.223337890625,4.88853645324707,4.713860511779785,7.377072334289551
1667255160899817200,0.225817138671875,5.024927616119385,4.675575256347656,7.17368221282959
1667255160902296300,0.22829638671875,5.13021183013916,4.680361270904541,6.9822564125061035
1667255160904775700,0.230775634765625,5.185246467590332,4.682754039764404,6.812366008758545
1667255160907255000,0.233255126953125,5.151747226715088,4.666004180908203,6.7070817947387695
1667255160909734100,0.235734130859375,5.079962253570557,4.634897232055664,6.678368091583252
1667255160912213500,0.238213623046875,4.979464054107666,4.555934429168701,6.661618232727051
1667255160914692900,0.24069287109375,4.859822750091553,4.450650215148926,6.666403770446777
1667255160917172000,0.243171875,4.737788677215576,4.388436794281006,6.680760860443115
1667255160919651300,0.2456513671875,4.577469825744629,4.371686935424805,6.721438884735107
1667255160922130400,0.24813037109375,4.438685894012451,4.398007869720459,6.776473522186279
1667255160924609800,0.25060986328125,4.321437835693359,4.462614059448242,6.845865726470947
1667255160927089200,0.253089111328125,4.230510234832764,4.5583271980285645,6.960721015930176
1667255160929568300,0.255568359375,4.1970109939575195,4.66361141204834,7.03489875793457
1667255160932047600,0.258047607421875,4.252045631408691,4.776073932647705,7.094718933105469
1667255160934526700,0.260526611328125,4.323830604553223,4.855037212371826,7.128218650817871
1667255160937006000,0.263006103515625,4.398007869720459,4.8502516746521,7.142575740814209
1667255160939485400,0.2654853515625,4.498506546020508,4.816751956939697,7.159325122833252
1667255160941964500,0.267964599609375,4.618147850036621,4.744967460632324,7.149754047393799
1667255160944444000,0.27044384765625,4.711467742919922,4.632504463195801,7.135396957397461
1667255160946923300,0.27292333984375,4.783252239227295,4.53200626373291,7.09711217880249
1667255160949402400,0.27540234375,4.847858905792236,4.436293125152588,7.0301127433776855
1667255160951881700,0.2778818359375,4.957928657531738,4.357329845428467,6.975078105926514
1667255160954360800,0.28036083984375,5.0943193435668945,4.285545349121094,6.874579429626465
1667255160956840200,0.282840087890625,5.19960355758667,4.204189300537109,6.7310099601745605
1667255160959319600,0.285319580078125,5.26181697845459,4.07258415222168,6.6592254638671875
1667255160961798700,0.287798583984375,5.290530681610107,3.955335855484009,6.6592254638671875
1667255160964278000,0.290278076171875,5.285745143890381,3.87876558303833,6.709474563598633
1667255160966757000,0.292757080078125,5.257031440734863,3.8572301864624023,6.766902446746826
1667255160969236500,0.295236572265625,5.233103275299072,3.895515203475952,6.869793891906738
1667255160971715800,0.2977158203125,5.216353416442871,3.955335855484009,6.946363925933838
1667255160974195000,0.30019482421875,5.283352375030518,4.058227062225342,7.003791809082031
1667255160976674300,0.30267431640625,5.359922885894775,4.153940200805664,7.037291526794434
1667255160979153700,0.305153564453125,5.460421085357666,4.268795490264893,7.061219692230225
1667255160981632800,0.3076328125,5.529813289642334,4.3788652420043945,7.101897716522217
1667255160984112000,0.310112060546875,5.508277893066406,4.426722049713135,7.197610378265381
1667255160986591200,0.31259130859375,5.508277893066406,4.445864677429199,7.341179847717285
1667255160989070600,0.315070556640625,5.426921844482422,4.481756687164307,7.513463020324707
1667255160991550000,0.317550048828125,5.31685209274292,4.543970108032227,7.733603000640869
1667255160994029000,0.320029052734375,5.216353416442871,4.649254322052002,7.980063438415527
1667255160996508400,0.32250830078125,5.146961688995361,4.785645484924316,8.228917121887207
1667255160998987800,0.32498779296875,5.13021183013916,4.972285270690918,8.420342445373535
1667255161001467000,0.327466796875,5.170889854431152,5.1804609298706055,8.609375953674316
1667255161003946200,0.3299462890625,5.26181697845459,5.38624382019043,8.752944946289062
1667255161006425600,0.332425537109375,5.307280540466309,5.592026710510254,8.858229637145996
1667255161008904700,0.33490478515625,5.4173502922058105,5.821737289428711,8.934800148010254
1667255161011384000,0.337384033203125,5.493920803070068,6.020341873168945,8.992227554321289
1667255161013863200,0.33986328125,5.520241737365723,6.178267955780029,9.075976371765137
1667255161016342500,0.342342529296875,5.615954875946045,6.314659118652344,9.198010444641113
1667255161018822000,0.34482177734375,5.682953834533691,6.415157318115234,9.32004451751709
1667255161021301000,0.347301025390625,5.740381717681885,6.463014125823975,9.396614074707031
1667255161023780400,0.3497802734375,5.649454116821289,6.453442573547363,9.384650230407715
1667255161026259700,0.352259765625,5.608776092529297,6.38883638381958,9.389435768127441
1667255161028738800,0.35473876953125,5.565705299377441,6.324230194091797,9.360722541809082
1667255161031218200,0.35721826171875,5.548955917358398,6.233303070068359,9.34157943725586
1667255161033697300,0.359697265625,5.5728840827941895,6.123233318328857,9.32722282409668
1667255161036176600,0.3621767578125,5.606383323669434,6.092126369476318,9.262616157531738
1667255161038656000,0.364656005859375,5.685346603393555,6.0370917320251465,9.21715259552002
1667255161041135000,0.367135009765625,5.711667537689209,5.960521221160889,9.164510726928711
1667255161043614500,0.369614501953125,5.735595703125,5.867201328277588,9.073583602905273
1667255161046093600,0.372093505859375,5.757131099700928,5.795416355133057,8.956335067749023
1667255161048573000,0.374572998046875,5.867201328277588,5.718846321105957,8.793622970581055
1667255161051052300,0.37705224609375,5.927021503448486,5.649454116821289,8.609375953674316
1667255161053531400,0.379531494140625,5.986842155456543,5.601597785949707,8.420342445373535
1667255161056010800,0.3820107421875,6.015556335449219,5.5968122482299805,8.171489715576172
1667255161058489900,0.38448974609375,6.03948450088501,5.608776092529297,7.946564197540283
1667255161060969200,0.38696923828125,6.051448345184326,5.649454116821289,7.712067604064941
1667255161063448600,0.389448486328125,6.056233882904053,5.680561065673828,7.477570533752441
1667255161065927700,0.391927734375,6.058627128601074,5.687739372253418,7.207181930541992
1667255161068407000,0.394406982421875,6.005984783172607,5.699703693389893,7.010970115661621
1667255161070886100,0.39688623046875,5.850451469421387,5.66620397567749,6.829115867614746
1667255161073365500,0.399365478515625,5.6207404136657715,5.594419479370117,6.687939167022705
1667255161075844900,0.401844970703125,5.328815937042236,5.467599868774414,6.613761901855469
1667255161078324000,0.404323974609375,5.000999450683594,5.288137912750244,6.58265495300293
1667255161080803300,0.40680322265625,4.718646049499512,5.13021183013916,6.592226505279541
1667255161083282700,0.40928271484375,4.47697114944458,4.969892501831055,6.556334018707275
1667255161085761800,0.41176171875,4.280759811401367,4.831109046936035,6.51326322555542
1667255161088241200,0.4142412109375,4.153940200805664,4.7234320640563965,6.472585201263428
1667255161090720300,0.41672021484375,4.039084434509277,4.625326156616211,6.422336101531982
1667255161093199600,0.41919970703125,3.9146578311920166,4.53200626373291,6.348158359527588
1667255161095679000,0.421678955078125,3.7806596755981445,4.4721856117248535,6.247660160064697
1667255161098158000,0.424157958984375,3.656233072280884,4.47697114944458,6.113661766052246
1667255161100637400,0.426637451171875,3.555734395980835,4.529613494873047,5.996413707733154
1667255161103116800,0.42911669921875,3.507878065109253,4.627718925476074,5.881557941436768
1667255161105596000,0.431595947265625,3.5054850578308105,4.742574691772461,5.7786664962768555
1667255161108075300,0.4340751953125,3.5437703132629395,4.859822750091553,5.759523868560791
1667255161110554400,0.436554443359375,3.6323046684265137,4.969892501831055,5.8097734451293945
1667255161113033700,0.43903369140625,3.7471601963043213,5.032105922698975,5.9509501457214355
1667255161115513000,0.44151318359375,3.7974095344543457,5.07517671585083,6.130411624908447
1667255161117992200,0.4439921875,3.8428730964660645,5.149354457855225,6.355337142944336
1667255161120471600,0.446471435546875,3.862015724182129,5.225924491882324,6.5874409675598145
1667255161122951000,0.448950927734375,3.9146578311920166,5.32403039932251,6.843472957611084
1667255161125430000,0.451429931640625,4.041477680206299,5.441278457641602,7.113861560821533
1667255161127909400,0.453909423828125,4.218546390533447,5.570491313934326,7.408178806304932
1667255161130388500,0.456388427734375,4.342973232269287,5.749952793121338,7.707281589508057
1667255161132867800,0.458867919921875,4.412364959716797,5.998806476593018,7.994420528411865
1667255161135347200,0.46134716796875,4.697110652923584,6.252445697784424,8.221738815307617
1667255161137826300,0.463826416015625,5.072783946990967,6.489335060119629,8.394021987915039
1667255161140305700,0.4663056640625,5.309673309326172,6.6592254638671875,8.492127418518066
1667255161142785000,0.468784912109375,5.340780258178711,6.764509677886963,8.489734649658203
1667255161145264000,0.47126416015625,5.252245903015137,6.766902446746826,8.405985832214355
1667255161147743500,0.473743408203125,5.149354457855225,6.664011001586914,8.219346046447754
1667255161150222600,0.47622265625,5.079962253570557,6.537191390991211,7.956135272979736
1667255161152702000,0.478701904296875,5.056034088134766,6.364908218383789,7.635497093200684
1667255161155181300,0.481181396484375,5.051248550415039,6.209374904632568,7.338787078857422
1667255161157660400,0.483660400390625,5.039284706115723,6.0466628074646,7.061219692230225
1667255161160139800,0.486139892578125,5.027320384979248,5.886343479156494,6.8171515464782715
1667255161162619000,0.488618896484375,5.029713153839111,5.735595703125,6.632904529571533
1667255161165098200,0.49109814453125,5.020142078399658,5.6207404136657715,6.498906135559082
1667255161167577600,0.49357763671875,4.967499732971191,5.4867424964904785,6.417550563812256
1667255161170056700,0.496056640625,4.8813581466674805,5.355136871337891,6.362515449523926
1667255161172536000,0.4985361328125,4.78803825378418,5.190032482147217,6.3529438972473145
1667255161175015400,0.501015380859375,4.701896667480469,5.06799840927124,6.3840508460998535
1667255161177494500,0.50349462890625,4.649254322052002,4.972285270690918,6.453442573547363
1667255161179974000,0.505973876953125,4.620540618896484,4.88853645324707,6.489335060119629
1667255161182453000,0.508452880859375,4.60857629776001,4.821537494659424,6.491727828979492
1667255161184932400,0.510932373046875,4.709074974060059,4.807180881500244,6.50608491897583
1667255161187411700,0.51341162109375,4.924428939819336,4.831109046936035,6.527620315551758
1667255161189890800,0.515890869140625,5.218746185302734,4.902893543243408,6.553941249847412
1667255161192370200,0.5183701171875,5.450850009918213,4.986642360687256,6.58265495300293
1667255161194849300,0.520849365234375,5.558526992797852,5.056034088134766,6.64486837387085
1667255161197328600,0.52332861328125,5.563312530517578,5.127819061279297,6.714260101318359
1667255161199808000,0.52580810546875,5.556134223937988,5.2283172607421875,6.774080753326416
1667255161202287000,0.528287109375,5.498706340789795,5.359922885894775,6.860222339630127
1667255161204766500,0.530766357421875,5.357530117034912,5.501099109649658,6.965506553649902
1667255161207245600,0.53324560546875,5.151747226715088,5.670989513397217,7.058826923370361
1667255161209725000,0.535724853515625,4.910071849822998,5.867201328277588,7.161718368530273
1667255161212204300,0.538204345703125,4.689932346343994,6.049055576324463,7.295716285705566
1667255161214683400,0.540683349609375,4.457828521728516,6.197410583496094,7.427321434020996
1667255161217162800,0.543162841796875,4.206582069396973,6.273981094360352,7.561319351196289
1667255161219642000,0.54564208984375,3.586841106414795,6.089733600616455,7.568498134613037
1667255161222121200,0.548121337890625,3.4719855785369873,5.8959150314331055,7.566105365753174
1667255161224600600,0.5506005859375,3.728017568588257,5.924628734588623,7.63310432434082
1667255161227079700,0.55307958984375,3.6705899238586426,6.001199245452881,7.781459331512451
1667255161229559000,0.55555908203125,3.651447296142578,6.206982135772705,7.956135272979736
1667255161232038400,0.558038330078125,3.6921253204345703,6.424728870391846,8.075776100158691
1667255161234517500,0.560517578125,3.713660717010498,6.577869415283203,8.123632431030273
1667255161236996900,0.562996826171875,3.6370904445648193,6.6113691329956055,8.039883613586426
1667255161239476200,0.565476318359375,3.5294134616851807,6.556334018707275,7.915457248687744
1667255161241955300,0.567955322265625,3.4672000408172607,6.474977970123291,7.781459331512451
1667255161244434700,0.5704345703125,3.462414264678955,6.3601226806640625,7.637889862060547
1667255161246913800,0.572913818359375,3.5270206928253174,6.216553211212158,7.482356548309326
1667255161249393200,0.57539306640625,3.6155550479888916,6.008377552032471,7.326822757720947
1667255161251872500,0.57787255859375,3.735196113586426,5.816951751708984,7.137789726257324
1667255161254351600,0.5803515625,3.8356947898864746,5.632704734802246,6.936792850494385
1667255161256831000,0.5828310546875,3.9433717727661133,5.484349727630615,6.786045074462891
1667255161259310300,0.585310302734375,4.022335052490234,5.338387489318848,6.6592254638671875
1667255161261789400,0.58778955078125,4.0558342933654785,5.2283172607421875,6.580262184143066
1667255161264268800,0.590268798828125,4.046263217926025,5.127819061279297,6.5252275466918945
1667255161266748000,0.592747802734375,4.005585193634033,5.029713153839111,6.467799663543701
1667255161269227300,0.595227294921875,3.950550079345703,4.972285270690918,6.4079790115356445
1667255161271706600,0.59770654296875,3.864408493041992,4.914857864379883,6.3361945152282715
1667255161274185700,0.600185791015625,3.7734813690185547,4.869394302368164,6.271588325500488
1667255161276665000,0.6026650390625,3.6610186100006104,4.816751956939697,6.197410583496094
1667255161279144200,0.605144287109375,3.5509488582611084,4.785645484924316,6.142375946044922
1667255161281623600,0.60762353515625,3.4504501819610596,4.768895626068115,6.106483459472656
1667255161284103000,0.61010302734375,3.342773199081421,4.754538536071777,6.080162525177002
1667255161286582000,0.61258203125,3.2135608196258545,4.744967460632324,6.10169792175293
1667255161289061400,0.615061279296875,3.081955671310425,4.752145767211914,6.144768714904785
1667255161291540500,0.61754052734375,2.9359934329986572,4.752145767211914,6.221338748931885
1667255161294019800,0.620019775390625,2.7972097396850586,4.761716842651367,6.3122663497924805
1667255161296499200,0.622499267578125,2.6488547325134277,4.749752998352051,6.369693756103516
1667255161298978300,0.624978271484375,2.258824586868286,4.560719966888428,6.3361945152282715
1667255161301457700,0.627457763671875,2.392822742462158,4.517649173736572,6.357729911804199
1667255161303937000,0.62993701171875,2.6464617252349854,4.563112735748291,6.38883638381958
1667255161306416000,0.632416015625,2.6871397495269775,4.694717884063721,6.422336101531982
1667255161308895500,0.6348955078125,2.6321048736572266,4.8574299812316895,6.415157318115234
1667255161311374600,0.63737451171875,2.8139593601226807,5.053641319274902,6.4319071769714355
1667255161313854000,0.63985400390625,3.053241729736328,5.2354960441589355,6.422336101531982
1667255161316333300,0.642333251953125,3.2470602989196777,5.388636589050293,6.386443614959717
1667255161318812400,0.6448125,3.304488182067871,5.505885124206543,6.345765590667725
1667255161321291800,0.647291748046875,3.3332018852233887,5.592026710510254,6.338587284088135
1667255161323771000,0.64977099609375,3.3714871406555176,5.6590256690979,6.403193473815918
1667255161326250200,0.652250244140625,3.3619158267974854,5.733202934265137,6.515655994415283
1667255161328729600,0.6547294921875,3.304488182067871,5.776273727416992,6.668796539306641
1667255161331208700,0.657208740234375,3.187239646911621,5.757131099700928,6.809973239898682
1667255161333688000,0.65968798828125,3.10109806060791,5.72841739654541,6.915257453918457
1667255161336167400,0.66216748046875,3.0652058124542236,5.66620397567749,6.967899322509766
1667255161338646500,0.664646484375,3.0939197540283203,5.61116886138916,6.991827964782715
1667255161341126000,0.6671259765625,3.0580272674560547,5.563312530517578,7.013363361358643
1667255161343605000,0.66960498046875,3.067598581314087,5.544169902801514,7.037291526794434
1667255161346084400,0.67208447265625,3.029313564300537,5.515456199645996,7.025327205657959
1667255161348563700,0.674563720703125,3.0101709365844727,5.505885124206543,7.018148899078369
1667255161351042800,0.677042724609375,2.988635540008545,5.5034918785095215,7.03489875793457
1667255161353522200,0.679522216796875,2.981456995010376,5.5106706619262695,7.03489875793457
1667255161356001500,0.68200146484375,2.9862427711486816,5.527420520782471,7.063612461090088
1667255161358480600,0.684480712890625,2.981456995010376,5.560919761657715,7.121040344238281
1667255161360960000,0.6869599609375,2.9551360607147217,5.5728840827941895,7.16650390625
1667255161363439000,0.689439208984375,2.878565549850464,5.560919761657715,7.200003147125244
1667255161365918500,0.69191845703125,2.857030153274536,5.544169902801514,7.226324558258057
1667255161368397800,0.694397705078125,2.8115665912628174,5.54177713394165,7.267002582550049
1667255161370877000,0.696876953125,2.7565317153930664,5.513063430786133,7.300501823425293
1667255161373356300,0.699356201171875,2.7349963188171387,5.501099109649658,7.348358154296875
1667255161375835600,0.701835693359375,2.675175666809082,5.474778175354004,7.439285755157471
1667255161378314800,0.704314697265625,2.6177480220794678,5.496313571929932,7.511070251464844
1667255161380794000,0.706794189453125,2.510071039199829,5.501099109649658,7.525427341461182
1667255161383273200,0.709273193359375,2.4095723628997803,5.5345988273620605,7.5804619789123535
1667255161385752600,0.711752685546875,2.273181438446045,5.558526992797852,7.6498541831970215
1667255161388232000,0.71423193359375,2.076970100402832,5.618347644805908,7.7216386795043945
1667255161390711000,0.7167109375,1.8472590446472168,5.6925249099731445,7.791030406951904
1667255161393190400,0.7191904296875,1.5792629718780518,5.788238048553467,7.8795647621154785
1667255161395669500,0.72166943359375,1.2993026971817017,5.883950710296631,7.989634990692139
1667255161398148900,0.72414892578125,1.0432707071304321,5.946164131164551,8.073383331298828
1667255161400628200,0.726628173828125,0.8350951075553894,5.972485542297363,8.13798999786377
1667255161403107300,0.729107421875,0.698704183101654,5.994020938873291,8.195417404174805
1667255161405586700,0.731586669921875,0.6101697683334351,6.003592014312744,8.283951759338379
1667255161408065800,0.734065673828125,0.5599204897880554,6.015556335449219,8.334200859069824
1667255161410545200,0.736545166015625,0.5288137793540955,6.041877269744873,8.372486114501953
1667255161413024500,0.7390244140625,0.5144568681716919,6.075376510620117,8.37966537475586
1667255161415503600,0.741503662109375,0.519242525100708,6.113661766052246,8.37966537475586
1667255161417983000,0.74398291015625,0.5551348328590393,6.173482418060303,8.389236450195312
1667255161420462000,0.746462158203125,0.576670229434967,6.247660160064697,8.391629219055176
1667255161422941400,0.74894140625,0.5934200286865234,6.324230194091797,8.410771369934082
1667255161425420800,0.7514208984375,0.6460621356964111,6.39601469039917,8.401200294494629
1667255161427900000,0.75389990234375,0.7154539823532104,6.44387149810791,8.410771369934082
1667255161430379300,0.756379150390625,0.7585247755050659,6.496513366699219,8.408378601074219
1667255161432858600,0.758858642578125,0.8111668825149536,6.498906135559082,8.343772888183594
1667255161435337700,0.761337646484375,0.9332008361816406,6.455835342407227,8.288737297058105
1667255161437817000,0.763817138671875,1.0815558433532715,6.400800704956055,8.22413158416748
1667255161440296200,0.766296142578125,1.1820544004440308,6.290730953216553,8.159524917602539
1667255161442775600,0.768775634765625,1.2346965074539185,6.183053493499756,8.051848411560059
1667255161445255000,0.7712548828125,1.28255295753479,6.075376510620117,7.946564197540283
1667255161447734000,0.773734130859375,1.2969099283218384,5.982056617736816,7.865208148956299
1667255161450213400,0.77621337890625,1.2801600694656372,5.912664890289307,7.75753116607666
1667255161452692700,0.778692626953125,1.2945170402526855,5.862415313720703,7.664210796356201
1667255161455171800,0.781171875,1.3088740110397339,5.840879917144775,7.63310432434082
1667255161457651200,0.783651123046875,1.3399807214736938,5.819344520568848,7.630711555480957
1667255161460130300,0.78613037109375,1.3782658576965332,5.793023586273193,7.642675399780273
1667255161462609700,0.788609619140625,1.4093725681304932,5.781059741973877,7.654639720916748
1667255161465089000,0.791089111328125,1.435693621635437,5.79063081741333,7.692924976348877
1667255161467568000,0.793568115234375,1.466800332069397,5.816951751708984,7.69531774520874
1667255161470047500,0.796047607421875,1.4931213855743408,5.85284423828125,7.704888820648193
1667255161472526800,0.79852685546875,1.5098711252212524,5.903093338012695,7.712067604064941
1667255161475006000,0.801005859375,1.5146567821502686,5.970092296600342,7.7216386795043945
1667255161477485300,0.8034853515625,1.5314065217971802,5.996413707733154,7.733603000640869
1667255161479964400,0.80596435546875,1.5409778356552124,6.029912948608398,7.728816986083984
1667255161482443800,0.80844384765625,1.552941918373108,6.092126369476318,7.716853141784668
1667255161484923100,0.810923095703125,1.5864413976669312,6.16391134262085,7.707281589508057
1667255161487402200,0.81340234375,1.6342978477478027,6.228517532348633,7.6977105140686035
1667255161489881600,0.815881591796875,1.6701902151107788,6.262016773223877,7.700103282928467
1667255161492360700,0.818360595703125,1.734796404838562,6.26440954208374,7.70249605178833
1667255161494840000,0.820840087890625,1.8137595653533936,6.247660160064697,7.683353424072266
1667255161497319400,0.8233193359375,1.9046868085861206,6.192625045776367,7.611568927764893
1667255161499798500,0.825798583984375,1.9812572002410889,6.135197162628174,7.537391185760498
1667255161502278000,0.82827783203125,2.0650060176849365,6.065805435180664,7.479963779449463
1667255161504757000,0.830757080078125,2.1200408935546875,6.027520179748535,7.45364236831665
1667255161507236400,0.833236328125,2.1439690589904785,5.994020938873291,7.458428382873535
1667255161509715700,0.8357158203125,2.146361827850342,5.996413707733154,7.463213920593262
1667255161512194800,0.83819482421875,2.1104695796966553,5.970092296600342,7.4464640617370605
1667255161514674200,0.840674072265625,2.0673987865448,5.953342914581299,7.432106971740723
1667255161517153500,0.843153564453125,2.0003998279571533,5.9509501457214355,7.369893550872803
1667255161519632600,0.845632568359375,1.9453648328781128,5.9437713623046875,7.324429988861084
1667255161522112000,0.848112060546875,1.852044701576233,5.982056617736816,7.278966426849365
1667255161524591000,0.850591064453125,1.765903115272522,6.010770320892334,7.240681171417236
1667255161527070500,0.853070556640625,1.6606189012527466,6.03948450088501,7.202396392822266
1667255161529549800,0.8555498046875,1.5840486288070679,6.034698486328125,7.152146816253662
1667255161532029000,0.85802880859375,1.545763373374939,6.022734642028809,7.0923261642456055
1667255161534508300,0.86050830078125,1.5026925802230835,5.994020938873291,7.032505512237549
1667255161536987400,0.8629873046875,1.4404792785644531,5.9509501457214355,6.994220733642578
1667255161539466800,0.865466796875,1.3591232299804688,5.903093338012695,6.977470874786377
1667255161541946000,0.867946044921875,1.2538390159606934,5.874379634857178,7.008577346801758
1667255161544425200,0.87042529296875,1.160519003868103,5.850451469421387,7.054041385650635
1667255161546904600,0.872904541015625,1.0456634759902954,5.848058700561523,7.106683254241943
1667255161549383700,0.8753837890625,0.9308080077171326,5.876772403717041,7.152146816253662
1667255161551863000,0.877863037109375,0.8063812255859375,5.874379634857178,7.1856465339660645
1667255161554342400,0.88034228515625,0.6843472719192505,5.893522262573242,7.207181930541992
1667255161556821500,0.882821533203125,0.5814558863639832,5.936593055725098,7.238288402557373
1667255161559300900,0.88530078125,0.5096712112426758,5.960521221160889,7.278966426849365
1667255161561780200,0.8877802734375,0.49292147159576416,6.015556335449219,7.267002582550049
1667255161564259300,0.89025927734375,0.5144568681716919,6.044270038604736,7.267002582550049
1667255161566738700,0.89273876953125,0.5694918036460876,6.0777692794799805,7.274180889129639
1667255161569218000,0.895218017578125,0.6580262184143066,6.106483459472656,7.269395351409912
1667255161571697200,0.897697265625,0.7585247755050659,6.125626087188721,7.295716285705566
1667255161574176500,0.900176513671875,0.8662018179893494,6.1399827003479,7.326822757720947
1667255161576655600,0.902655517578125,0.9379864931106567,6.137589931488037,7.317251682281494
1667255161579135000,0.905135009765625,1.0289137363433838,6.1328043937683105,7.286144733428955
1667255161581614300,0.9076142578125,1.1748759746551514,6.113661766052246,7.264609336853027
1667255161584093400,0.910093505859375,1.2921242713928223,6.116054534912109,7.2430739402771
1667255161586572800,0.91257275390625,1.3782658576965332,6.0849480628967285,7.195217609405518
1667255161589052000,0.915052001953125,1.4261223077774048,6.068198204040527,7.161718368530273
1667255161591531300,0.91753125,1.4069796800613403,6.0466628074646,7.121040344238281
1667255161594010600,0.9200107421875,1.3543375730514526,6.068198204040527,7.0683979988098145
1667255161596489700,0.92248974609375,1.2729816436767578,6.092126369476318,7.027719974517822
1667255161598969000,0.924968994140625,1.1102696657180786,6.130411624908447,7.010970115661621
1667255161601448400,0.927448486328125,0.9044869542121887,6.1328043937683105,6.9822564125061035
1667255161603927600,0.929927490234375,0.7034898400306702,6.151947021484375,6.967899322509766
1667255161606407000,0.932406982421875,0.5096712112426758,6.144768714904785,6.936792850494385
1667255161608886000,0.934885986328125,0.31824541091918945,6.087340831756592,6.91765022277832
1667255161611365400,0.937365478515625,0.13878370821475983,6.0370917320251465,6.869793891906738
1667255161613844700,0.9398447265625,0.06699903309345245,5.9198431968688965,6.807580471038818
1667255161616323800,0.94232373046875,-0.08135596662759781,5.6207404136657715,6.652047157287598
1667255161618803200,0.94480322265625,-0.20099709928035736,5.5728840827941895,6.640082836151123
1667255161621282300,0.9472822265625,-0.1866401731967926,5.589633464813232,6.63769006729126
1667255161623761700,0.94976171875,-0.25363919138908386,5.627918720245361,6.702296257019043
1667255161626241000,0.952240966796875,-0.4019941985607147,5.687739372253418,6.788437843322754
1667255161628720000,0.95472021484375,-0.4953143000602722,5.824130535125732,6.903293132781982
1667255161631199500,0.957199462890625,-0.4977070987224579,5.97727108001709,7.025327205657959
1667255161633678600,0.9596787109375,-0.4450650215148926,6.104090690612793,7.118647575378418
1667255161636158000,0.962157958984375,-0.38285163044929504,6.199803352355957,7.18086051940918
1667255161638637300,0.96463720703125,-0.31345975399017334,6.271588325500488,7.259823799133301
1667255161641116400,0.967116455078125,-0.18424734473228455,6.309873104095459,7.341179847717285
1667255161643595800,0.969595703125,-0.062213387340307236,6.362515449523926,7.436892986297607
1667255161646075000,0.972074951171875,0.0526420995593071,6.434299945831299,7.546962738037109
1667255161648554200,0.97455419921875,0.14356936514377594,6.50608491897583,7.652246952056885
1667255161651033600,0.97703369140625,0.23449662327766418,6.563512325286865,7.747959613800049
1667255161653512700,0.9795126953125,0.34217363595962524,6.640082836151123,7.81974458694458
1667255161655992000,0.981991943359375,0.46899324655532837,6.7070817947387695,7.877171993255615
1667255161658471400,0.984471435546875,0.605384111404419,6.735795974731445,7.941778182983398
1667255161660950500,0.986950439453125,0.729810893535614,6.766902446746826,8.001599311828613
1667255161663430000,0.989429931640625,0.8757730722427368,6.8171515464782715,8.032705307006836
1667255161665909200,0.9919091796875,0.9978070259094238,6.831508636474609,8.094919204711914
1667255161668388400,0.994388427734375,1.0887342691421509,6.845865726470947,8.140382766723633
1667255161670867700,0.99686767578125,1.153340458869934,6.876972198486328,8.207381248474121
1667255161673346800,0.999346923828125,1.184447169303894,6.874579429626465,8.23848819732666
1667255161675826200,1.001826171875,1.1892328262329102,6.8410797119140625,8.257631301879883
1667255161678305500,1.004305419921875,1.1748759746551514,6.802794933319092,8.228917121887207
1667255161680784600,1.00678466796875,1.129412293434143,6.733402729034424,8.197810173034668
1667255161683264000,1.009263916015625,1.0552347898483276,6.623332977294922,8.111668586730957
1667255161685743400,1.011743408203125,0.9762716293334961,6.544369697570801,8.032705307006836
1667255161688222500,1.014222412109375,0.8949156403541565,6.463014125823975,7.929814338684082
1667255161690701800,1.016701904296875,0.8207381963729858,6.379265308380127,7.843672752380371
1667255161693181000,1.019180908203125,0.7776673436164856,6.297909259796143,7.7455668449401855
1667255161695660300,1.021660400390625,0.7417750358581543,6.235695838928223,7.659425258636475
1667255161698139600,1.0241396484375,0.698704183101654,6.192625045776367,7.599604606628418
1667255161700618800,1.02661865234375,0.6675975322723389,6.183053493499756,7.5708909034729
1667255161703098000,1.02909814453125,0.6484549641609192,6.168696880340576,7.561319351196289
1667255161705577200,1.0315771484375,0.638883650302887,6.1710896492004395,7.561319351196289
1667255161708056600,1.034056640625,0.5982056856155396,6.192625045776367,7.5637125968933105
1667255161710536000,1.036535888671875,0.576670229434967,6.226124286651611,7.5637125968933105
1667255161713015000,1.03901513671875,0.5527420043945312,6.245266914367676,7.518248558044434
1667255161715494400,1.041494384765625,0.5216353535652161,6.273981094360352,7.439285755157471
1667255161717973500,1.043973388671875,0.4833501875400543,6.3122663497924805,7.372286796569824
1667255161720452900,1.046452880859375,0.45942193269729614,6.340980052947998,7.29810905456543
1667255161722932200,1.04893212890625,0.4450650215148926,6.376872539520264,7.247859954833984
1667255161725411300,1.051411376953125,0.4546363055706024,6.417550563812256,7.216753005981445
1667255161727890700,1.053890625,0.4737788736820221,6.427121639251709,7.183253765106201
1667255161730370000,1.0563701171875,0.5144568681716919,6.448657035827637,7.178467750549316
1667255161732849200,1.05884912109375,0.5623133182525635,6.460621356964111,7.188039302825928
1667255161735328500,1.06132861328125,0.6245267391204834,6.45822811126709,7.176074981689453
1667255161737807600,1.0638076171875,0.6915257573127747,6.439085960388184,7.140182971954346
1667255161740287000,1.066286865234375,0.763310432434082,6.391229152679443,7.0923261642456055
1667255161742766300,1.068766357421875,0.8207381963729858,6.329015731811523,7.044469833374023
1667255161745245400,1.071245361328125,0.8638089895248413,6.2500529289245605,7.001399040222168
1667255161747724800,1.073724853515625,0.9236295223236084,6.221338748931885,6.965506553649902
1667255161750204000,1.076203857421875,1.0001999139785767,6.206982135772705,6.929614543914795
1667255161752683300,1.078683349609375,1.0887342691421509,6.209374904632568,6.912864685058594
1667255161755162600,1.08116259765625,1.1772687435150146,6.185446739196777,6.903293132781982
1667255161757641700,1.083641845703125,1.2442678213119507,6.142375946044922,6.915257453918457
1667255161760121000,1.08612109375,1.3112667798995972,6.082555294036865,6.927221775054932
1667255161762600200,1.08860009765625,1.3567304611206055,6.032305717468262,6.884150981903076
1667255161765079600,1.09107958984375,1.3950155973434448,5.98444938659668,6.843472957611084
1667255161767559000,1.093558837890625,1.4261223077774048,5.931807518005371,6.781259536743164
1667255161770038000,1.0960380859375,1.4691931009292603,5.910272121429443,6.690331935882568
1667255161772517400,1.098517333984375,1.5050854682922363,5.886343479156494,6.58265495300293
1667255161774996700,1.100996826171875,1.5026925802230835,5.874379634857178,6.472585201263428
1667255161777475800,1.103475830078125,1.4811571836471558,5.862415313720703,6.350551128387451
1667255161779955200,1.105955078125,1.4572290182113647,5.862415313720703,6.252445697784424
1667255161782434600,1.1084345703125,1.4572290182113647,5.867201328277588,6.173482418060303
1667255161784913700,1.11091357421875,1.4093725681304932,5.874379634857178,6.135197162628174
1667255161787393000,1.11339306640625,1.3710874319076538,5.907878875732422,6.130411624908447
1667255161789872000,1.1158720703125,1.3256237506866455,5.958128452301025,6.137589931488037
1667255161792351500,1.1183515625,1.2873386144638062,6.005984783172607,6.168696880340576
1667255161794830800,1.120830810546875,1.2681959867477417,6.063412666320801,6.214160442352295
1667255161797310000,1.12331005859375,1.2394821643829346,6.135197162628174,6.245266914367676
1667255161799789300,1.125789306640625,1.1988041400909424,6.185446739196777,6.276373863220215
1667255161802268700,1.1282685546875,1.1700903177261353,6.2428741455078125,6.343372821807861
1667255161804747800,1.130747802734375,1.124626636505127,6.278766632080078,6.415157318115234
1667255161807227100,1.13322705078125,1.074377417564392,6.309873104095459,6.50608491897583
1667255161809706200,1.135706298828125,0.9810572862625122,6.343372821807861,6.597012042999268
1667255161812185600,1.138185546875,0.885344386100769,6.340980052947998,6.673582553863525
1667255161814665000,1.1406650390625,0.7992027401924133,6.3601226806640625,6.750152587890625
1667255161817144000,1.14314404296875,0.7082754969596863,6.355337142944336,6.8243303298950195
1667255161819623400,1.14562353515625,0.6005984544754028,6.350551128387451,6.869793891906738
1667255161822102500,1.1481025390625,0.5096712112426758,6.362515449523926,6.867401123046875
1667255161824582000,1.150581787109375,0.46420758962631226,6.379265308380127,6.833901405334473
1667255161827061200,1.153061279296875,0.47617170214653015,6.415157318115234,6.778866767883301
1667255161829540400,1.155540283203125,0.5096712112426758,6.448657035827637,6.723831653594971
1667255161832019700,1.158019775390625,0.5312066078186035,6.479763507843018,6.695117950439453
1667255161834499000,1.1604990234375,0.5312066078186035,6.532405853271484,6.704689025878906
1667255161836978200,1.162978271484375,0.5575276613235474,6.604190349578857,6.721438884735107
1667255161839457500,1.16545751953125,0.5814558863639832,6.671189308166504,6.7621169090271
1667255161841936600,1.1679365234375,0.607776939868927,6.728617191314697,6.798008918762207
1667255161844416000,1.170416015625,0.638883650302887,6.790830612182617,6.826723098754883
1667255161846895400,1.172895263671875,0.6317051649093628,6.809973239898682,6.850651264190674
1667255161849374500,1.17537451171875,0.605384111404419,6.790830612182617,6.8482584953308105
1667255161851853800,1.177853759765625,0.5647061467170715,6.809973239898682,6.8410797119140625
1667255161854333000,1.1803330078125,0.5312066078186035,6.821937561035156,6.831508636474609
1667255161856812300,1.182812255859375,0.48095735907554626,6.821937561035156,6.798008918762207
1667255161859291600,1.185291748046875,0.41156548261642456,6.8410797119140625,6.795616149902344
1667255161861770800,1.187770751953125,0.34217363595962524,6.8482584953308105,6.790830612182617
1667255161864250000,1.19025,0.2967100143432617,6.867401123046875,6.786045074462891
1667255161866729200,1.192729248046875,0.24646073579788208,6.8865437507629395,6.778866767883301
1667255161869208600,1.19520849609375,0.18903298676013947,6.881757736206055,6.781259536743164
1667255161871688000,1.19768798828125,0.13878370821475983,6.881757736206055,6.8004021644592285
1667255161874167000,1.2001669921875,0.1052841991186142,6.850651264190674,6.845865726470947
1667255161876646400,1.202646484375,0.08853443711996078,6.826723098754883,6.891329288482666
1667255161879125500,1.20512548828125,0.12681959569454193,6.821937561035156,6.932007312774658
1667255161881604900,1.20760498046875,0.17228323221206665,6.798008918762207,6.936792850494385
1667255161884084200,1.210084228515625,0.21296121180057526,6.774080753326416,6.946363925933838
1667255161886563300,1.212563232421875,0.26560330390930176,6.759724140167236,6.965506553649902
1667255161889042700,1.215042724609375,0.31345975399017334,6.766902446746826,7.013363361358643
1667255161891522000,1.21752197265625,0.3924229145050049,6.798008918762207,7.04925537109375
1667255161894001200,1.220001220703125,0.4546363055706024,6.8482584953308105,7.106683254241943
1667255161896480500,1.22248046875,0.5168496966362,6.898507595062256,7.17368221282959
1667255161898960000,1.2249599609375,0.5742774605751038,6.936792850494385,7.252645492553711
1667255161901439000,1.22743896484375,0.6460621356964111,7.010970115661621,7.3292155265808105
1667255161903918300,1.22991845703125,0.7154539823532104,7.085147857666016,7.417750358581543
1667255161906397400,1.2323974609375,0.7680960893630981,7.144968509674072,7.494320392608643
1667255161908876800,1.234876708984375,0.8350951075553894,7.18086051940918,7.573283672332764
1667255161911356200,1.237356201171875,0.9451649188995361,7.188039302825928,7.623532772064209
1667255161913835300,1.239835205078125,1.0480563640594482,7.171289443969727,7.637889862060547
1667255161916314600,1.242314697265625,1.100698471069336,7.135396957397461,7.6498541831970215
1667255161918794000,1.2447939453125,1.0959128141403198,7.085147857666016,7.63310432434082
1667255161921273000,1.247273193359375,1.074377417564392,7.04207706451416,7.609176158905029
1667255161923752400,1.24975244140625,1.0145567655563354,6.996613502502441,7.566105365753174
1667255161926231600,1.2522314453125,0.9284151792526245,6.948757171630859,7.542177200317383
1667255161928711000,1.2547109375,0.7824530005455017,6.872186660766602,7.501499176025391
1667255161931190300,1.257190185546875,0.6029912829399109,6.819544315338135,7.432106971740723
1667255161933669400,1.25966943359375,0.4091726839542389,6.754938125610352,7.3675007820129395
1667255161936148700,1.262148681640625,0.2799602448940277,6.692724704742432,7.29093074798584
1667255161938627800,1.2646279296875,0.1866401731967926,6.63051176071167,7.223931789398193
1667255161941107200,1.267107177734375,0.07657032459974289,6.585047721862793,7.164111137390137
1667255161943586600,1.269586669921875,-0.05503492057323456,6.52044153213501,7.130611419677734
1667255161946065700,1.272065673828125,-0.1866401731967926,6.4941205978393555,7.094718933105469
1667255161948545000,1.274544921875,-0.28953152894973755,6.455835342407227,7.080362319946289
1667255161951024400,1.2770244140625,-0.3613162338733673,6.460621356964111,7.054041385650635
1667255161953503500,1.27950341796875,-0.4139583110809326,6.482156753540039,6.996613502502441
1667255161955982800,1.28198291015625,-0.44027936458587646,6.496513366699219,6.948757171630859
1667255161958462000,1.2844619140625,-0.4307080805301666,6.5180487632751465,6.893722057342529
1667255161960941300,1.28694140625,-0.3852444589138031,6.546762943267822,6.8554368019104
1667255161963420700,1.289420654296875,-0.349352091550827,6.565905570983887,6.819544315338135
1667255161965899800,1.291899658203125,-0.2967100143432617,6.585047721862793,6.831508636474609
1667255161968379100,1.294379150390625,-0.20817556977272034,6.573083877563477,6.879364967346191
1667255161970858200,1.296858154296875,-0.12681959569454193,6.565905570983887,6.927221775054932
1667255161973337600,1.299337646484375,-0.05503492057323456,6.5491557121276855,6.994220733642578
1667255161975817000,1.30181689453125,0.016749758273363113,6.515655994415283,7.001399040222168
1667255161978296000,1.304296142578125,0.08853443711996078,6.486942291259766,7.018148899078369
1667255161980775400,1.306775390625,0.1339980661869049,6.448657035827637,7.03489875793457
1667255161983254800,1.3092548828125,0.1698904037475586,6.410371780395508,7.037291526794434
1667255161985734000,1.31173388671875,0.1818545162677765,6.374479293823242,7.037291526794434
1667255161988213200,1.314213134765625,0.1698904037475586,6.350551128387451,7.020541667938232
1667255161990692400,1.3166923828125,0.1459621787071228,6.317051887512207,7.008577346801758
1667255161993171700,1.319171630859375,0.12921242415905,6.295516490936279,7.010970115661621
1667255161995651000,1.321651123046875,0.07657032459974289,6.2668023109436035,7.051648139953613
1667255161998130200,1.324130126953125,0.040677983313798904,6.262016773223877,7.094718933105469
1667255162000609500,1.326609619140625,0.004785645287483931,6.269195556640625,7.118647575378418
1667255162003088600,1.329088623046875,-0.0023928226437419653,6.297909259796143,7.156932353973389
1667255162005568000,1.331568115234375,0.004785645287483931,6.350551128387451,7.197610378265381
1667255162008047400,1.33404736328125,0.007178467698395252,6.398407936096191,7.238288402557373
1667255162010526500,1.3365263671875,0.01196411345154047,6.439085960388184,7.300501823425293
1667255162013005800,1.339005859375,0.01196411345154047,6.484549522399902,7.338787078857422
1667255162015485200,1.341485107421875,0.04307080805301666,6.50608491897583,7.381857872009277
1667255162017964300,1.34396435546875,0.12442677468061447,6.51326322555542,7.444071292877197
1667255162020443600,1.346443603515625,0.1986042857170105,6.510870456695557,7.491927623748779
1667255162022922800,1.3489228515625,0.2560320198535919,6.489335060119629,7.5086774826049805
1667255162025402000,1.351402099609375,0.2991028428077698,6.439085960388184,7.479963779449463
1667255162027881500,1.353881591796875,0.31345975399017334,6.374479293823242,7.456035137176514
1667255162030360600,1.356360595703125,0.3517449200153351,6.302694797515869,7.393822193145752
1667255162032840000,1.35883984375,0.4211367964744568,6.235695838928223,7.341179847717285
1667255162035319300,1.3613193359375,0.46899324655532837,6.180660724639893,7.286144733428955
1667255162037798400,1.36379833984375,0.48813581466674805,6.142375946044922,7.22871732711792
1667255162040277800,1.36627783203125,0.4905286431312561,6.065805435180664,7.1473612785339355
1667255162042756900,1.3687568359375,0.46899324655532837,6.013163089752197,7.054041385650635
1667255162045236200,1.371236328125,0.4450650215148926,5.953342914581299,6.97268533706665
1667255162047715600,1.373715576171875,0.41874396800994873,5.893522262573242,6.867401123046875
1667255162050194700,1.376194580078125,0.40677985548973083,5.85284423828125,6.754938125610352
1667255162052674000,1.378674072265625,0.34695929288864136,5.848058700561523,6.671189308166504
1667255162055153400,1.3811533203125,0.275174617767334,5.85284423828125,6.58265495300293
1667255162057632500,1.383632568359375,0.20338992774486542,5.907878875732422,6.530013084411621
1667255162060112000,1.38611181640625,0.11724831163883209,5.948556900024414,6.484549522399902
1667255162062591000,1.388591064453125,0.014356935396790504,5.998806476593018,6.4319071769714355
1667255162065070300,1.3910703125,-0.062213387340307236,6.027520179748535,6.350551128387451
1667255162067549700,1.3935498046875,-0.12921242415905,6.0538411140441895,6.293123722076416
1667255162070028800,1.39602880859375,-0.19381862878799438,6.092126369476318,6.2428741455078125
1667255162072508200,1.398508056640625,-0.24167509377002716,6.10169792175293,6.175875186920166
1667255162074987300,1.4009873046875,-0.2584248483181,6.104090690612793,6.120840549468994
1667255162077466600,1.403466552734375,-0.2392822653055191,6.087340831756592,6.0849480628967285
1667255162079946000,1.405946044921875,-0.1986042857170105,6.0466628074646,6.032305717468262
1667255162082425000,1.408425048828125,-0.12203395366668701,6.015556335449219,5.960521221160889
1667255162084904400,1.410904541015625,0,5.955735683441162,5.948556900024414
1667255162087383800,1.4133837890625,0.12681959569454193,5.917450428009033,5.924628734588623
1667255162089863000,1.41586279296875,0.2632105052471161,5.864808082580566,5.924628734588623
1667255162092342300,1.41834228515625,0.3924229145050049,5.836094379425049,5.953342914581299
1667255162094821400,1.4208212890625,0.5144568681716919,5.8097734451293945,5.9916276931762695
1667255162097300700,1.42330078125,0.6364908218383789,5.816951751708984,6.0370917320251465
1667255162099780000,1.425780029296875,0.7345965504646301,5.828916072845459,6.094519138336182
1667255162102259200,1.42825927734375,0.7968099117279053,5.876772403717041,6.20219612121582
1667255162104738600,1.430738525390625,0.8422735929489136,5.934200286865234,6.288337707519531
1667255162107217700,1.4332177734375,0.8566305041313171,5.989234924316406,6.3840508460998535
1667255162109697000,1.435697021484375,0.8350951075553894,6.065805435180664,6.45822811126709
1667255162112176400,1.43817626953125,0.7776673436164856,6.1399827003479,6.52044153213501
1667255162114655500,1.440655517578125,0.6939185857772827,6.206982135772705,6.573083877563477
1667255162117134800,1.443134765625,0.6293123364448547,6.297909259796143,6.623332977294922
1667255162119614200,1.4456142578125,0.5359922647476196,6.398407936096191,6.640082836151123
1667255162122093300,1.44809326171875,0.43549370765686035,6.479763507843018,6.709474563598633
1667255162124572700,1.45057275390625,0.32303106784820557,6.577869415283203,6.8482584953308105
1667255162127051800,1.4530517578125,0.18903298676013947,6.675975322723389,6.97268533706665
1667255162129531100,1.45553125,0.062213387340307236,6.774080753326416,7.109076023101807
1667255162132010500,1.458010498046875,-0.05503492057323456,6.874579429626465,7.252645492553711
1667255162134489600,1.460489501953125,-0.15074782073497772,6.970292568206787,7.348358154296875
1667255162136969000,1.462968994140625,-0.22971096634864807,7.066005229949951,7.410571575164795
1667255162139448000,1.465447998046875,-0.31345975399017334,7.156932353973389,7.494320392608643
1667255162141927400,1.467927490234375,-0.39960137009620667,7.250252723693848,7.566105365753174
1667255162144406800,1.47040673828125,-0.48574298620224,7.3292155265808105,7.64028263092041
1667255162146886000,1.472885986328125,-0.5599204897880554,7.384250640869141,7.712067604064941
1667255162149365200,1.475365234375,-0.6269195079803467,7.444071292877197,7.812565803527832
1667255162151844600,1.4778447265625,-0.672383189201355,7.501499176025391,7.901100158691406
1667255162154323700,1.48032373046875,-0.7034898400306702,7.561319351196289,7.980063438415527
1667255162156803000,1.482802978515625,-0.7489534616470337,7.621140003204346,8.068597793579102
1667255162159282200,1.4852822265625,-0.7776673436164856,7.678567886352539,8.166703224182129
1667255162161761500,1.487761474609375,-0.7728816866874695,7.724031448364258,8.283951759338379
1667255162164241000,1.490240966796875,-0.7704889178276062,7.738388538360596,8.391629219055176
1667255162166720000,1.492719970703125,-0.7824530005455017,7.7216386795043945,8.530412673950195
1667255162169199400,1.495199462890625,-0.7920243144035339,7.683353424072266,8.642875671386719
1667255162171678700,1.4976787109375,-0.7896314859390259,7.6666035652160645,8.72183895111084
1667255162174157800,1.50015771484375,-0.7824530005455017,7.628318786621094,8.784051895141602
1667255162176637200,1.50263720703125,-0.8039883971214294,7.587640762329102,8.810373306274414
1667255162179116300,1.5051162109375,-0.8183453679084778,7.544569969177246,8.762516975402832
1667255162181595600,1.507595703125,-0.8327022790908813,7.525427341461182,8.654839515686035
1667255162184075000,1.510074951171875,-0.8350951075553894,7.499105930328369,8.516056060791016
1667255162186554000,1.51255419921875,-0.851844847202301,7.482356548309326,8.3629150390625
1667255162189033500,1.515033447265625,-0.885344386100769,7.458428382873535,8.169096946716309
1667255162191512800,1.517512939453125,-0.916451096534729,7.439285755157471,8.001599311828613
1667255162193992000,1.519991943359375,-0.9667003750801086,7.436892986297607,7.848458290100098
1667255162196471300,1.52247119140625,-1.031306505203247,7.439285755157471,7.724031448364258
1667255162198950400,1.524950439453125,-1.1078768968582153,7.444071292877197,7.613961696624756
1667255162201429800,1.5274296875,-1.1868400573730469,7.441678524017334,7.518248558044434
1667255162203909000,1.5299091796875,-1.2610175609588623,7.427321434020996,7.405786037445068
1667255162206388200,1.53238818359375,-1.2993026971817017,7.379465103149414,7.314858913421631
1667255162208867600,1.53486767578125,-1.3471591472625732,7.345965385437012,7.207181930541992
1667255162211347000,1.537346923828125,-1.3519448041915894,7.29093074798584,7.106683254241943
1667255162213826000,1.539825927734375,-1.3519448041915894,7.2574310302734375,7.020541667938232
1667255162216305400,1.542305419921875,-1.3351950645446777,7.192824840545654,6.936792850494385
1667255162218784500,1.544784423828125,-1.3040883541107178,7.16650390625,6.821937561035156
1667255162221264000,1.547263916015625,-1.2418749332427979,7.152146816253662,6.735795974731445
1667255162223743200,1.5497431640625,-1.1629117727279663,7.121040344238281,6.647261142730713
1667255162226222300,1.552222412109375,-1.0839486122131348,7.085147857666016,6.546762943267822
1667255162228701700,1.55470166015625,-0.9858429431915283,7.063612461090088,6.441478729248047
1667255162231181000,1.55718115234375,-0.8901300430297852,7.04207706451416,6.340980052947998
1667255162233660200,1.55966015625,-0.7896314859390259,7.0301127433776855,6.240481376647949
1667255162236139500,1.562139404296875,-0.7010970115661621,7.018148899078369,6.16391134262085
1667255162238618600,1.56461865234375,-0.6317051649093628,6.98704195022583,6.120840549468994
1667255162241098000,1.567097900390625,-0.5599204897880554,6.999006271362305,6.072983741760254
1667255162243577300,1.569577392578125,-0.5072783827781677,6.999006271362305,6.029912948608398
1667255162246056400,1.572056396484375,-0.45224347710609436,6.996613502502441,5.996413707733154
1667255162248535800,1.574535888671875,-0.42831525206565857,7.015756130218506,5.965306758880615
1667255162251015000,1.577014892578125,-0.4091726839542389,7.0301127433776855,5.924628734588623
1667255162253494300,1.579494384765625,-0.3852444589138031,7.070790767669678,5.891129493713379
1667255162255973600,1.5819736328125,-0.35892340540885925,7.0923261642456055,5.831308841705322
1667255162258452700,1.58445263671875,-0.30628129839897156,7.094718933105469,5.781059741973877
1667255162260932000,1.58693212890625,-0.24646073579788208,7.073183536529541,5.7547383308410645
1667255162263411500,1.589411376953125,-0.19381862878799438,7.04925537109375,5.740381717681885
1667255162265890600,1.591890625,-0.16749759018421173,7.022934436798096,5.771488189697266
1667255162268370000,1.594369873046875,-0.13878370821475983,6.98704195022583,5.812166213989258
1667255162270849000,1.59684912109375,-0.062213387340307236,6.977470874786377,5.831308841705322
1667255162273328400,1.599328369140625,0.040677983313798904,6.955935478210449,5.864808082580566
1667255162275807700,1.601807861328125,0.14356936514377594,6.929614543914795,5.8959150314331055
1667255162278286800,1.604286865234375,0.2225325107574463,6.915257453918457,5.900700569152832
1667255162280766200,1.60676611328125,0.2847459018230438,6.900900363922119,5.941378593444824
1667255162283245300,1.609245361328125,0.3565305769443512,6.91765022277832,5.9676995277404785
1667255162285724700,1.611724609375,0.4043870270252228,6.922435760498047,5.982056617736816
1667255162288204000,1.6142041015625,0.4331009089946747,6.9344000816345215,6.029912948608398
1667255162290683100,1.61668310546875,0.4450650215148926,6.936792850494385,6.063412666320801
1667255162293162500,1.61916259765625,0.4498506486415863,6.905686378479004,6.03948450088501
1667255162295641900,1.621641845703125,0.4426721930503845,6.872186660766602,6.008377552032471
1667255162298121000,1.624120849609375,0.4211367964744568,6.8243303298950195,5.934200286865234
1667255162300600300,1.626600341796875,0.3900300860404968,6.795616149902344,5.848058700561523
1667255162303079400,1.629079345703125,0.349352091550827,6.757331371307373,5.769095420837402
1667255162305558800,1.631558837890625,0.32303106784820557,6.711867332458496,5.694917678833008
1667255162308038100,1.6340380859375,0.2991028428077698,6.654439926147461,5.618347644805908
1667255162310517200,1.636517333984375,0.2847459018230438,6.63051176071167,5.527420520782471
1667255162312996600,1.63899658203125,0.24406790733337402,6.594619274139404,5.467599868774414
1667255162315476000,1.64147607421875,0.2392822653055191,6.561119556427002,5.410171985626221
1667255162317955000,1.643955078125,0.21774685382843018,6.558726787567139,5.352744102478027
1667255162320434400,1.646434326171875,0.19381862878799438,6.544369697570801,5.2977094650268555
1667255162322913500,1.64891357421875,0.16510476171970367,6.515655994415283,5.304887771606445
1667255162325393000,1.651392822265625,0.1459621787071228,6.491727828979492,5.31685209274292
1667255162327872300,1.653872314453125,0.12921242415905,6.4510498046875,5.3455657958984375
1667255162330351400,1.656351318359375,0.10289137065410614,6.400800704956055,5.395814895629883
1667255162332830700,1.658830810546875,0.05742774158716202,6.3361945152282715,5.4173502922058105
1667255162335310000,1.66131005859375,0.03349951654672623,6.283552169799805,5.453242778778076
1667255162337789200,1.6637890625,0.009571290574967861,6.254838466644287,5.493920803070068
1667255162340268500,1.6662685546875,-0.02153540402650833,6.25723123550415,5.527420520782471
1667255162342747600,1.66874755859375,-0.04546362906694412,6.295516490936279,5.575276851654053
1667255162345227000,1.67122705078125,-0.035892341285943985,6.348158359527588,5.647061347961426
1667255162347706400,1.673706298828125,0.01196411345154047,6.422336101531982,5.745167255401611
1667255162350185500,1.676185546875,0.05742774158716202,6.498906135559082,5.85284423828125
1667255162352664800,1.678664794921875,0.10049854964017868,6.570691108703613,6.013163089752197
1667255162355144200,1.681144287109375,0.13160525262355804,6.668796539306641,6.192625045776367
1667255162357623300,1.683623291015625,0.15314064919948578,6.754938125610352,6.38165807723999
1667255162360102700,1.6861025390625,0.1459621787071228,6.831508636474609,6.556334018707275
1667255162362581800,1.688581787109375,0.11964113265275955,6.8865437507629395,6.752545356750488
1667255162365061000,1.69106103515625,0.05503492057323456,6.898507595062256,6.97268533706665
1667255162367540500,1.69354052734375,-0.035892341285943985,6.932007312774658,7.156932353973389
1667255162370019600,1.69601953125,-0.1339980661869049,6.951149940490723,7.3292155265808105
1667255162372499000,1.6984990234375,-0.2273181527853012,6.936792850494385,7.501499176025391
1667255162374978300,1.700978271484375,-0.3206382393836975,6.896114826202393,7.688138961791992
1667255162377457400,1.70345751953125,-0.3900300860404968,6.8243303298950195,7.886743545532227
1667255162379936800,1.705936767578125,-0.4618147611618042,6.7310099601745605,8.054241180419922
1667255162382416000,1.708415771484375,-0.5551348328590393,6.613761901855469,8.193024635314941
1667255162384895200,1.710895263671875,-0.6484549641609192,6.484549522399902,8.305487632751465
1667255162387374600,1.71337451171875,-0.7489534616470337,6.38883638381958,8.382058143615723
1667255162389853700,1.715853759765625,-0.849452018737793,6.329015731811523,8.449056625366211
1667255162392333000,1.7183330078125,-0.9523434042930603,6.317051887512207,8.511270523071289
1667255162394812400,1.7208125,-1.0552347898483276,6.338587284088135,8.58066177368164
1667255162397291500,1.72329150390625,-1.1724830865859985,6.403193473815918,8.657232284545898
1667255162399771000,1.72577099609375,-1.2849457263946533,6.479763507843018,8.7505521774292
1667255162402250000,1.72825,-1.3878371715545654,6.553941249847412,8.81515884399414
1667255162404729300,1.730729248046875,-1.4500504732131958,6.661618232727051,8.872586250305176
1667255162407208700,1.733208740234375,-1.4859428405761719,6.752545356750488,8.927620887756348
1667255162409687800,1.735687744140625,-1.4979069232940674,6.838686943054199,8.97787094116211
1667255162412167200,1.738167236328125,-1.5170495510101318,6.939185619354248,9.023334503173828
1667255162414646300,1.740646240234375,-1.5002998113632202,7.032505512237549,9.083154678344727
1667255162417125600,1.743125732421875,-1.4859428405761719,7.106683254241943,9.154939651489258
1667255162419605000,1.74560498046875,-1.4452649354934692,7.156932353973389,9.250652313232422
1667255162422084000,1.748083984375,-1.3878371715545654,7.211967468261719,9.346364974975586
1667255162424563500,1.7505634765625,-1.3304094076156616,7.23589563369751,9.415757179260254
1667255162427042800,1.753042724609375,-1.2586246728897095,7.252645492553711,9.45882797241211
1667255162429522000,1.75552197265625,-1.1820544004440308,7.245467185974121,9.487542152404785
1667255162432001300,1.758001220703125,-1.1198409795761108,7.214360237121582,9.475577354431152
1667255162434480400,1.76048046875,-1.0671988725662231,7.168896675109863,9.463613510131836
1667255162436959700,1.762959716796875,-1.0480563640594482,7.118647575378418,9.408578872680664
1667255162439439000,1.765439208984375,-1.0217353105545044,7.089933395385742,9.34157943725586
1667255162441918200,1.767918212890625,-1.0145567655563354,7.027719974517822,9.253045082092285
1667255162444397600,1.7703974609375,-1.0360921621322632,6.967899322509766,9.140582084655762
1667255162446877000,1.772876953125,-1.1054840087890625,6.900900363922119,9.042476654052734
1667255162449356000,1.77535595703125,-1.2179467678070068,6.805187702178955,8.95394229888916
1667255162451835400,1.77783544921875,-1.3471591472625732,6.733402729034424,8.882157325744629
1667255162454314500,1.780314453125,-1.4811571836471558,6.640082836151123,8.798408508300781
1667255162456793900,1.7827939453125,-1.5960127115249634,6.561119556427002,8.74337387084961
1667255162459273200,1.785273193359375,-1.7060825824737549,6.4701924324035645,8.673981666564941
1667255162461752300,1.78775244140625,-1.7754744291305542,6.38883638381958,8.606983184814453
1667255162464231700,1.790231689453125,-1.8376877307891846,6.314659118652344,8.535198211669922
1667255162466710800,1.792710693359375,-1.8664016723632812,6.254838466644287,8.50169849395752
1667255162469190100,1.795190185546875,-1.8711873292922974,6.226124286651611,8.468199729919434
1667255162471669500,1.79766943359375,-1.832902193069458,6.216553211212158,8.4562349319458
1667255162474148600,1.800148681640625,-1.7491533756256104,6.247660160064697,8.451449394226074
1667255162476628000,1.8026279296875,-1.6534404754638672,6.2668023109436035,8.513663291931152
1667255162479107300,1.805107421875,-1.5696916580200195,6.321837425231934,8.58066177368164
1667255162481586400,1.80758642578125,-1.4691931009292603,6.372086524963379,8.662017822265625
1667255162484065800,1.810065673828125,-1.3758729696273804,6.398407936096191,8.733802795410156
1667255162486545000,1.812544921875,-1.2849457263946533,6.448657035827637,8.841479301452637
1667255162489024300,1.815024169921875,-1.2059825658798218,6.510870456695557,8.930013656616211
1667255162491503600,1.817503662109375,-1.1102696657180786,6.589833736419678,9.006584167480469
1667255162493982700,1.819982666015625,-1.0265209674835205,6.654439926147461,9.028120040893555
1667255162496462000,1.822462158203125,-0.9882357716560364,6.714260101318359,9.032905578613281
1667255162498941200,1.824941162109375,-0.9858429431915283,6.747759819030762,9.018548965454102
1667255162501420500,1.827420654296875,-1.0193424224853516,6.774080753326416,8.9850492477417
1667255162503900000,1.82989990234375,-1.0671988725662231,6.774080753326416,8.951549530029297
1667255162506379000,1.83237890625,-1.1078768968582153,6.807580471038818,8.930013656616211
1667255162508858400,1.8348583984375,-1.1700903177261353,6.857829570770264,8.927620887756348
1667255162511337700,1.837337646484375,-1.2323036193847656,6.915257453918457,8.908478736877441
1667255162513816800,1.83981689453125,-1.2849457263946533,6.9583282470703125,8.927620887756348
1667255162516296200,1.842296142578125,-1.337587833404541,6.994220733642578,8.901300430297852
1667255162518775300,1.844775390625,-1.3351950645446777,7.0301127433776855,8.846264839172363
1667255162521254700,1.847254638671875,-1.3208380937576294,7.0755767822265625,8.764909744262695
1667255162523734000,1.849734130859375,-1.2873386144638062,7.085147857666016,8.669196128845215
1667255162526213000,1.852213134765625,-1.2538390159606934,7.0755767822265625,8.554341316223145
1667255162528692500,1.8546923828125,-1.210768222808838,7.0755767822265625,8.410771369934082
1667255162531171800,1.857171875,-1.1653046607971191,7.066005229949951,8.252845764160156
1667255162533651000,1.85965087890625,-1.0887342691421509,7.085147857666016,8.085348129272461
1667255162536130300,1.86213037109375,-0.9978070259094238,7.118647575378418,7.934599876403809
1667255162538609700,1.864609619140625,-0.9355936646461487,7.1473612785339355,7.769495010375977
1667255162541088800,1.8670888671875,-0.8877372145652771,7.190432071685791,7.613961696624756
1667255162543568100,1.869568115234375,-0.8279166221618652,7.23589563369751,7.477570533752441
1667255162546047200,1.872047119140625,-0.7585247755050659,7.293323516845703,7.36032247543335
1667255162548526600,1.874526611328125,-0.672383189201355,7.36032247543335,7.269395351409912
1667255162551006000,1.877005859375,-0.6436693072319031,7.434499740600586,7.1473612785339355
1667255162553485000,1.879485107421875,-0.6221339106559753,7.470392227172852,7.054041385650635
1667255162555964400,1.88196435546875,-0.6293123364448547,7.4847493171691895,6.91765022277832
1667255162558443800,1.88444384765625,-0.6340979933738708,7.4847493171691895,6.790830612182617
1667255162560923000,1.8869228515625,-0.6173482537269592,7.465606689453125,6.668796539306641
1667255162563402200,1.88940234375,-0.5886343717575073,7.410571575164795,6.563512325286865
1667255162565881300,1.89188134765625,-0.5335994362831116,7.317251682281494,6.398407936096191
1667255162568360700,1.894360595703125,-0.5072783827781677,7.204789161682129,6.2428741455078125
1667255162570840000,1.896840087890625,-0.4737788736820221,7.070790767669678,6.104090690612793
1667255162573319200,1.899319091796875,-0.44027936458587646,6.955935478210449,5.931807518005371
1667255162575798500,1.901798583984375,-0.42831525206565857,6.86261510848999,5.771488189697266
1667255162578278000,1.90427783203125,-0.4331009089946747,6.728617191314697,5.599205017089844
1667255162580757000,1.906757080078125,-0.41156548261642456,6.606583118438721,5.438885688781738
1667255162583236400,1.909236328125,-0.4019941985607147,6.50608491897583,5.302495002746582
1667255162585715500,1.911715576171875,-0.4043870270252228,6.415157318115234,5.168497085571289
1667255162588194800,1.91419482421875,-0.3756731450557709,6.309873104095459,5.06799840927124
1667255162590674200,1.916674072265625,-0.349352091550827,6.235695838928223,4.967499732971191
1667255162593153300,1.9191533203125,-0.3038884699344635,6.1710896492004395,4.898108005523682
1667255162595632600,1.921632568359375,-0.2584248483181,6.128018856048584,4.814359188079834
1667255162598112000,1.924112060546875,-0.20578274130821228,6.106483459472656,4.768895626068115
1667255162600591000,1.926591064453125,-0.15553347766399384,6.104090690612793,4.7234320640563965
1667255162603070500,1.929070556640625,-0.09571290761232376,6.104090690612793,4.701896667480469
1667255162605549600,1.931549560546875,-0.04546362906694412,6.120840549468994,4.692325115203857
1667255162608029000,1.93402880859375,0.014356935396790504,6.137589931488037,4.709074974060059
1667255162610508300,1.93650830078125,0.07417750358581543,6.149554252624512,4.754538536071777
1667255162612987400,1.9389873046875,0.12442677468061447,6.135197162628174,4.785645484924316
1667255162615466800,1.941466796875,0.18424734473228455,6.116054534912109,4.840680122375488
1667255162617946000,1.943946044921875,0.24646073579788208,6.116054534912109,4.907679080963135
1667255162620425200,1.94642529296875,0.31345975399017334,6.1088762283325195,4.979464054107666
1667255162622904600,1.948904541015625,0.3684946894645691,6.116054534912109,5.051248550415039
1667255162625383700,1.9513837890625,0.397208571434021,6.147161483764648,5.175675392150879
1667255162627863000,1.953863037109375,0.4019941985607147,6.178267955780029,5.300102233886719
1667255162630342400,1.95634228515625,0.4259224236011505,6.235695838928223,5.472385406494141
1667255162632821500,1.958821533203125,0.42831525206565857,6.31944465637207,5.639883041381836
1667255162635300900,1.96130078125,0.4091726839542389,6.38883638381958,5.843272686004639
1667255162637780200,1.9637802734375,0.380458801984787,6.446264266967773,6.027520179748535
1667255162640259300,1.96625927734375,0.32303106784820557,6.503692150115967,6.216553211212158
1667255162642738700,1.96873876953125,0.2512463629245758,6.551548480987549,6.376872539520264
1667255162645217800,1.9712177734375,0.16749759018421173,6.608976364135742,6.51326322555542
1667255162647697200,1.973697265625,0.05742774158716202,6.666403770446777,6.640082836151123
1667255162650176500,1.976176513671875,-0.07417750358581543,6.714260101318359,6.752545356750488
1667255162652655600,1.978655517578125,-0.2105683982372284,6.7621169090271,6.884150981903076
1667255162655135000,1.981135009765625,-0.3565305769443512,6.798008918762207,7.025327205657959
1667255162657614300,1.9836142578125,-0.5000999569892883,6.826723098754883,7.171289443969727
1667255162660093400,1.986093505859375,-0.6340979933738708,6.8243303298950195,7.29810905456543
1667255162662572800,1.98857275390625,-0.7537391185760498,6.857829570770264,7.444071292877197
1667255162665052000,1.991052001953125,-0.8255237936973572,6.908079147338867,7.575676441192627
1667255162667531300,1.99353125,-0.885344386100769,6.984649181365967,7.659425258636475
1667255162670010600,1.9960107421875,-0.9403793215751648,7.0683979988098145,7.750352382659912
1667255162672489700,1.99848974609375,-0.9882357716560364,7.161718368530273,7.8388872146606445
1667255162674969000,2.000968994140625,-1.0552347898483276,7.250252723693848,7.9250288009643555
1667255162677448200,2.0034482421875,-1.124626636505127,7.355536937713623,7.9968132972717285
1667255162679927600,2.005927490234375,-1.1868400573730469,7.463213920593262,8.02791976928711
1667255162682407000,2.008406982421875,-1.246660590171814,7.568498134613037,8.0350980758667
1667255162684886000,2.010885986328125,-1.3184453248977661,7.642675399780273,8.049455642700195
1667255162687365400,2.013365478515625,-1.3830515146255493,7.678567886352539,8.015955924987793
1667255162689844700,2.0158447265625,-1.4380863904953003,7.69531774520874,7.960920810699463
1667255162692323800,2.01832373046875,-1.4691931009292603,7.671389579772949,7.891529083251953
1667255162694803200,2.02080322265625,-1.5074782371520996,7.642675399780273,7.769495010375977
1667255162697282300,2.0232822265625,-1.5625132322311401,7.590033531188965,7.621140003204346
1667255162699761700,2.02576171875,-1.643869161605835,7.5086774826049805,7.45364236831665
1667255162702241000,2.028240966796875,-1.7204394340515137,7.420143127441406,7.29093074798584
1667255162704720100,2.03072021484375,-1.7850457429885864,7.331608772277832,7.144968509674072
1667255162707199500,2.033199462890625,-1.8352949619293213,7.2335028648376465,6.9822564125061035
1667255162709678800,2.035678955078125,-1.9070796966552734,7.128218650817871,6.831508636474609
1667255162712158000,2.038157958984375,-1.9836499691009521,7.027719974517822,6.704689025878906
1667255162714637300,2.04063720703125,-2.0578274726867676,6.963113784790039,6.608976364135742
1667255162717116400,2.043116455078125,-2.0889341831207275,6.920042991638184,6.52044153213501
1667255162719595800,2.045595703125,-2.108076810836792,6.915257453918457,6.460621356964111
1667255162722075100,2.0480751953125,-2.0985054969787598,6.915257453918457,6.39601469039917
1667255162724554200,2.05055419921875,-2.0793628692626953,6.943971157073975,6.350551128387451
1667255162727033600,2.05303369140625,-2.029113531112671,6.960721015930176,6.297909259796143
1667255162729513000,2.055512939453125,-1.9405791759490967,6.999006271362305,6.240481376647949
1667255162731992000,2.057991943359375,-1.8185452222824097,7.039684295654297,6.173482418060303
1667255162734471400,2.060471435546875,-1.7012969255447388,7.085147857666016,6.125626087188721
1667255162736950500,2.062950439453125,-1.576870083808899,7.125825881958008,6.0777692794799805
1667255162739430000,2.065429931640625,-1.4715858697891235,7.17368221282959,6.0466628074646
1667255162741909200,2.0679091796875,-1.3639088869094849,7.219145774841309,6.005984783172607
1667255162744388400,2.070388427734375,-1.2658032178878784,7.264609336853027,5.989234924316406
1667255162746867700,2.07286767578125,-1.184447169303894,7.319644451141357,5.974878311157227
1667255162749347000,2.07534716796875,-1.100698471069336,7.362715244293213,5.9437713623046875
1667255162751826200,2.077826171875,-1.0169496536254883,7.384250640869141,5.941378593444824
1667255162754305500,2.080305419921875,-0.9284151792526245,7.403393268585205,5.982056617736816
1667255162756784600,2.08278466796875,-0.8231309652328491,7.432106971740723,5.98444938659668
1667255162759264000,2.085263916015625,-0.7345965504646301,7.479963779449463,5.989234924316406
1667255162761743400,2.087743408203125,-0.6484549641609192,7.525427341461182,5.941378593444824
1667255162764222500,2.090222412109375,-0.5431707501411438,7.554141044616699,5.929414749145508
1667255162766701800,2.092701904296875,-0.4666004180908203,7.582854747772217,5.912664890289307
1667255162769181200,2.09518115234375,-0.3756731450557709,7.57806921005249,5.891129493713379
1667255162771660300,2.097660400390625,-0.2991028428077698,7.566105365753174,5.8959150314331055
1667255162774139600,2.1001396484375,-0.2273181527853012,7.542177200317383,5.905486106872559
1667255162776618800,2.10261865234375,-0.14117653667926788,7.520641803741455,5.917450428009033
1667255162779098000,2.10509814453125,-0.06699903309345245,7.479963779449463,5.898307800292969
1667255162781577500,2.107577392578125,0,7.448856830596924,5.881557941436768
1667255162784056600,2.110056640625,0.038285162299871445,7.420143127441406,5.8719868659973145
1667255162786536000,2.112535888671875,0.04785645380616188,7.412964344024658,5.84566593170166
1667255162789015300,2.115015380859375,0.038285162299871445,7.420143127441406,5.831308841705322
1667255162791494400,2.117494384765625,0.01196411345154047,7.436892986297607,5.8337016105651855
1667255162793973800,2.119973876953125,-0.038285162299871445,7.448856830596924,5.819344520568848
1667255162796452900,2.122452880859375,-0.11246266216039658,7.45364236831665,5.812166213989258
1667255162798932200,2.12493212890625,-0.19381862878799438,7.458428382873535,5.800201892852783
1667255162801411600,2.12741162109375,-0.30628129839897156,7.472784996032715,5.745167255401611
1667255162803890700,2.129890625,-0.40677985548973083,7.472784996032715,5.718846321105957
1667255162806370000,2.1323701171875,-0.5096712112426758,7.45364236831665,5.687739372253418
1667255162808849400,2.134849365234375,-0.6269195079803467,7.41535758972168,5.654240131378174
1667255162811328500,2.13732861328125,-0.7154539823532104,7.3746795654296875,5.613562107086182
1667255162813807900,2.139807861328125,-0.7704889178276062,7.343572616577148,5.582455158233643
1667255162816287000,2.142286865234375,-0.8183453679084778,7.314858913421631,5.544169902801514
1667255162818766300,2.144766357421875,-0.8638089895248413,7.286144733428955,5.501099109649658
1667255162821245700,2.14724560546875,-0.916451096534729,7.283751964569092,5.491528034210205
1667255162823724800,2.149724853515625,-0.9690931439399719,7.319644451141357,5.498706340789795
1667255162826204200,2.1522041015625,-1.0241280794143677,7.386643409729004,5.520241737365723
1667255162828683300,2.154683349609375,-1.0671988725662231,7.458428382873535,5.5345988273620605
1667255162831162600,2.15716259765625,-1.1054840087890625,7.520641803741455,5.568098068237305
1667255162833642000,2.15964208984375,-1.160519003868103,7.597211837768555,5.568098068237305
1667255162836121000,2.16212109375,-1.196411371231079,7.6474609375,5.563312530517578
1667255162838600400,2.164600341796875,-1.215553879737854,7.685746192932129,5.556134223937988
1667255162841079800,2.167079833984375,-1.2562319040298462,7.704888820648193,5.553741455078125
1667255162843559000,2.169558837890625,-1.301695466041565,7.704888820648193,5.546562671661377
1667255162846038300,2.172038330078125,-1.3519448041915894,7.69531774520874,5.54177713394165
1667255162848517600,2.174517578125,-1.3663017749786377,7.6977105140686035,5.584847927093506
1667255162850996700,2.176996826171875,-1.3639088869094849,7.661818027496338,5.637490272521973
1667255162853476000,2.17947607421875,-1.3256237506866455,7.623532772064209,5.704489231109619
1667255162855955200,2.181955078125,-1.2610175609588623,7.590033531188965,5.781059741973877
1667255162858434600,2.1844345703125,-1.1724830865859985,7.520641803741455,5.850451469421387
1667255162860914000,2.186913818359375,-1.0480563640594482,7.467999458312988,5.917450428009033
1667255162863393000,2.18939306640625,-0.9092726111412048,7.436892986297607,5.958128452301025
1667255162865872400,2.191872314453125,-0.7537391185760498,7.405786037445068,5.982056617736816
1667255162868351700,2.194351806640625,-0.607776939868927,7.389036178588867,5.986842155456543
1667255162870830800,2.196830810546875,-0.4905286431312561,7.379465103149414,5.97727108001709
1667255162873310200,2.199310302734375,-0.4091726839542389,7.386643409729004,5.979663848876953
1667255162875789300,2.201789306640625,-0.363709032535553,7.389036178588867,5.9916276931762695
1667255162878268700,2.2042685546875,-0.34217363595962524,7.393822193145752,5.982056617736816
1667255162880748000,2.206748046875,-0.3565305769443512,7.41535758972168,5.994020938873291
1667255162883227100,2.20922705078125,-0.4019941985607147,7.436892986297607,5.970092296600342
1667255162885706500,2.21170654296875,-0.47617170214653015,7.432106971740723,5.9676995277404785
1667255162888185900,2.214185791015625,-0.5575276613235474,7.401000499725342,5.994020938873291
1667255162890665000,2.2166650390625,-0.6580262184143066,7.341179847717285,5.982056617736816
1667255162893144300,2.219144287109375,-0.760917603969574,7.247859954833984,5.955735683441162
1667255162895623400,2.22162353515625,-0.8327022790908813,7.1473612785339355,5.9437713623046875
1667255162898102800,2.224102783203125,-0.9068797826766968,7.0301127433776855,5.912664890289307
1667255162900582100,2.22658203125,-0.9427721500396729,6.929614543914795,5.883950710296631
1667255162903061200,2.229061279296875,-0.97148597240448,6.812366008758545,5.864808082580566
1667255162905540600,2.23154052734375,-0.9690931439399719,6.69990348815918,5.85284423828125
1667255162908020000,2.23402001953125,-0.9332008361816406,6.608976364135742,5.8337016105651855
1667255162910499000,2.2364990234375,-0.8709874153137207,6.544369697570801,5.857629776000977
1667255162912978400,2.238978515625,-0.7800601720809937,6.508477687835693,5.86002254486084
1667255162915457500,2.24145751953125,-0.672383189201355,6.467799663543701,5.876772403717041
1667255162917937000,2.24393701171875,-0.5718846321105957,6.417550563812256,5.917450428009033
1667255162920416300,2.246416259765625,-0.5168496966362,6.403193473815918,5.970092296600342
1667255162922895400,2.248895263671875,-0.4737788736820221,6.427121639251709,6.001199245452881
1667255162925374700,2.251374755859375,-0.46420758962631226,6.455835342407227,6.041877269744873
1667255162927854000,2.25385400390625,-0.4953143000602722,6.50608491897583,6.099305152893066
1667255162930333200,2.256333251953125,-0.5527420043945312,6.565905570983887,6.154339790344238
1667255162932812500,2.2588125,-0.6340979933738708,6.632904529571533,6.187839508056641
1667255162935292000,2.2612919921875,-0.7489534616470337,6.7070817947387695,6.240481376647949
1667255162937771000,2.26377099609375,-0.8877372145652771,6.8004021644592285,6.309873104095459
1667255162940250400,2.26625048828125,-1.0289137363433838,6.879364967346191,6.410371780395508
1667255162942729500,2.2687294921875,-1.1461620330810547,6.9344000816345215,6.522834300994873
1667255162945208800,2.271208740234375,-1.2418749332427979,6.999006271362305,6.618547439575195
1667255162947688200,2.273688232421875,-1.3088740110397339,7.061219692230225,6.692724704742432
1667255162950167300,2.276167236328125,-1.332802176475525,7.1162543296813965,6.771687984466553
1667255162952646700,2.278646728515625,-1.3399807214736938,7.17368221282959,6.819544315338135
1667255162955126000,2.2811259765625,-1.3184453248977661,7.176074981689453,6.865008354187012
1667255162957605000,2.283605224609375,-1.2705888748168945,7.171289443969727,6.903293132781982
1667255162960084500,2.28608447265625,-1.2203395366668701,7.135396957397461,6.946363925933838
1667255162962563600,2.2885634765625,-1.1653046607971191,7.077969551086426,6.975078105926514
1667255162965043000,2.29104296875,-1.0911271572113037,7.032505512237549,7.013363361358643
1667255162967522300,2.293522216796875,-0.9978070259094238,7.003791809082031,7.061219692230225
1667255162970001400,2.29600146484375,-0.9068797826766968,6.999006271362305,7.121040344238281
1667255162972480800,2.298480712890625,-0.8279166221618652,7.025327205657959,7.195217609405518
1667255162974960000,2.300960205078125,-0.7585247755050659,7.0683979988098145,7.226324558258057
1667255162977439200,2.303439208984375,-0.6771687865257263,7.118647575378418,7.262216567993164
1667255162979918600,2.305918701171875,-0.6149554252624512,7.190432071685791,7.293323516845703
1667255162982397700,2.308397705078125,-0.576670229434967,7.238288402557373,7.288537979125977
1667255162984877000,2.310876953125,-0.5718846321105957,7.302894592285156,7.29810905456543
1667255162987356400,2.3133564453125,-0.5862415432929993,7.357929706573486,7.295716285705566
1667255162989835500,2.31583544921875,-0.6317051649093628,7.3914289474487305,7.288537979125977
1667255162992315000,2.31831494140625,-0.7130611538887024,7.448856830596924,7.3052873611450195
1667255162994794200,2.320794189453125,-0.8039883971214294,7.527820110321045,7.357929706573486
1667255162997273300,2.3232734375,-0.8949156403541565,7.597211837768555,7.3986077308654785
1667255162999752700,2.325752685546875,-0.9978070259094238,7.637889862060547,7.451249599456787
1667255163002231800,2.328231689453125,-1.0887342691421509,7.661818027496338,7.491927623748779
1667255163004711200,2.330711181640625,-1.1700903177261353,7.6474609375,7.511070251464844
1667255163007190500,2.3331904296875,-1.2323036193847656,7.625925540924072,7.491927623748779
1667255163009669600,2.335669677734375,-1.2801600694656372,7.599604606628418,7.475177764892578
1667255163012149000,2.33814892578125,-1.3040883541107178,7.558926582336426,7.436892986297607
1667255163014628400,2.34062841796875,-1.301695466041565,7.475177764892578,7.3675007820129395
1667255163017107500,2.343107421875,-1.2634103298187256,7.393822193145752,7.310073375701904
1667255163019586800,2.3455869140625,-1.2179467678070068,7.302894592285156,7.223931789398193
1667255163022066200,2.348066162109375,-1.1485549211502075,7.2430739402771,7.130611419677734
1667255163024545300,2.350545166015625,-1.1054840087890625,7.152146816253662,7.027719974517822
1667255163027024600,2.353024658203125,-1.062413215637207,7.094718933105469,6.936792850494385
1667255163029503700,2.355503662109375,-1.0193424224853516,7.0755767822265625,6.893722057342529
1667255163031983000,2.357983154296875,-0.9978070259094238,7.0683979988098145,6.845865726470947
1667255163034462500,2.36046240234375,-0.9954141974449158,7.054041385650635,6.829115867614746
1667255163036941600,2.362941650390625,-1.0265209674835205,7.061219692230225,6.829115867614746
1667255163039421000,2.3654208984375,-1.062413215637207,7.118647575378418,6.812366008758545
1667255163041900300,2.367900390625,-1.0863415002822876,7.156932353973389,6.7621169090271
1667255163044379400,2.37037939453125,-1.1341979503631592,7.204789161682129,6.723831653594971
1667255163046858800,2.372858642578125,-1.160519003868103,7.231110095977783,6.687939167022705
1667255163049337900,2.375337890625,-1.1748759746551514,7.238288402557373,6.656832695007324
1667255163051817200,2.377817138671875,-1.1724830865859985,7.250252723693848,6.6352972984313965
1667255163054296600,2.380296630859375,-1.1748759746551514,7.2430739402771,6.5874409675598145
1667255163056775700,2.382775634765625,-1.153340458869934,7.221538543701172,6.570691108703613
1667255163059255000,2.385255126953125,-1.1270195245742798,7.240681171417236,6.551548480987549
1667255163061734400,2.387734375,-1.1030912399291992,7.22871732711792,6.556334018707275
1667255163064213500,2.390213623046875,-1.0911271572113037,7.23589563369751,6.553941249847412
1667255163066692900,2.39269287109375,-1.0887342691421509,7.267002582550049,6.551548480987549
1667255163069172000,2.395171875,-1.0791629552841187,7.29093074798584,6.561119556427002
1667255163071651300,2.3976513671875,-1.069591760635376,7.319644451141357,6.551548480987549
1667255163074130700,2.400130615234375,-1.062413215637207,7.35314416885376,6.544369697570801
1667255163076609800,2.40260986328125,-1.0336993932724,7.393822193145752,6.558726787567139
1667255163079089200,2.405089111328125,-1.0336993932724,7.420143127441406,6.58265495300293
1667255163081568500,2.407568603515625,-1.0289137363433838,7.456035137176514,6.608976364135742
1667255163084047600,2.410047607421875,-1.0241280794143677,7.51585578918457,6.6592254638671875
1667255163086527000,2.41252685546875,-1.0121639966964722,7.568498134613037,6.721438884735107
1667255163089006000,2.415006103515625,-1.0049854516983032,7.621140003204346,6.759724140167236
1667255163091485400,2.4174853515625,-0.9906286001205444,7.6737823486328125,6.798008918762207
1667255163093964800,2.41996484375,-0.9906286001205444,7.728816986083984,6.845865726470947
1667255163096444000,2.42244384765625,-0.9667003750801086,7.762316703796387,6.888936519622803
1667255163098923300,2.42492333984375,-0.9643075466156006,7.802994728088379,6.9104719161987305
1667255163101402600,2.427402587890625,-0.9451649188995361,7.8388872146606445,6.939185619354248
1667255163103881700,2.4298818359375,-0.9523434042930603,7.89631462097168,6.991827964782715
1667255163106361000,2.432361083984375,-0.9284151792526245,7.946564197540283,7.020541667938232
1667255163108840200,2.434840087890625,-0.9212366938591003,7.975277900695801,7.04925537109375
1667255163111319600,2.437319580078125,-0.9212366938591003,8.042277336120605,7.063612461090088
1667255163113799000,2.439798828125,-0.9236295223236084,8.09970474243164,7.04207706451416
1667255163116278000,2.442278076171875,-0.9284151792526245,8.149953842163086,6.984649181365967
1667255163118757400,2.44475732421875,-0.9547362327575684,8.176275253295898,6.932007312774658
1667255163121236700,2.44723681640625,-1.00259268283844,8.178668022155762,6.879364967346191
1667255163123715800,2.4497158203125,-1.0480563640594482,8.15234661102295,6.850651264190674
1667255163126195200,2.4521953125,-1.1054840087890625,8.102097511291504,6.809973239898682
1667255163128674600,2.454674560546875,-1.1581261157989502,8.0350980758667,6.776473522186279
1667255163131153700,2.457153564453125,-1.184447169303894,7.992027759552002,6.723831653594971
1667255163133633000,2.459633056640625,-1.215553879737854,7.963313579559326,6.6831536293029785
1667255163136112000,2.462112060546875,-1.2059825658798218,7.910671710968018,6.647261142730713
1667255163138591500,2.464591552734375,-1.2035897970199585,7.867600917816162,6.6113691329956055
1667255163141070800,2.46707080078125,-1.1748759746551514,7.843672752380371,6.546762943267822
1667255163143550000,2.469550048828125,-1.0959128141403198,7.810173034667969,6.498906135559082
1667255163146029300,2.472029296875,-1.0265209674835205,7.781459331512451,6.463014125823975
1667255163148508700,2.4745087890625,-0.9403793215751648,7.747959613800049,6.4079790115356445
1667255163150987800,2.47698779296875,-0.8590233325958252,7.692924976348877,6.355337142944336
1667255163153467100,2.479467041015625,-0.7824530005455017,7.628318786621094,6.300302028656006
1667255163155946200,2.4819462890625,-0.7130611538887024,7.527820110321045,6.204588890075684
1667255163158425600,2.484425537109375,-0.6652047038078308,7.417750358581543,6.106483459472656
1667255163160905000,2.486905029296875,-0.6556333899497986,7.300501823425293,6.005984783172607
1667255163163384000,2.489384033203125,-0.6436693072319031,7.192824840545654,5.893522262573242
1667255163165863400,2.491863525390625,-0.6556333899497986,7.094718933105469,5.800201892852783
1667255163168342800,2.4943427734375,-0.6795616149902344,7.027719974517822,5.735595703125
1667255163170822000,2.49682177734375,-0.7130611538887024,6.999006271362305,5.697310924530029
1667255163173301200,2.49930126953125,-0.7322037220001221,6.989434719085693,5.675775527954102
1667255163175780400,2.5017802734375,-0.7441678643226624,7.015756130218506,5.6590256690979
1667255163178259700,2.504259765625,-0.7657032608985901,7.0301127433776855,5.615954875946045
1667255163180739000,2.506739013671875,-0.7800601720809937,7.061219692230225,5.6207404136657715
1667255163183218200,2.50921826171875,-0.7968099117279053,7.09711217880249,5.623133182525635
1667255163185697500,2.511697509765625,-0.8087740540504456,7.156932353973389,5.6446685791015625
1667255163188177000,2.514177001953125,-0.8159525394439697,7.17368221282959,5.682953834533691
1667255163190656000,2.516656005859375,-0.794417142868042,7.18086051940918,5.733202934265137
1667255163193135400,2.51913525390625,-0.7657032608985901,7.226324558258057,5.79780912399292
1667255163195614700,2.52161474609375,-0.7106683254241943,7.2574310302734375,5.879165172576904
1667255163198093800,2.52409375,-0.6556333899497986,7.29093074798584,5.979663848876953
1667255163200573200,2.5265732421875,-0.5886343717575073,7.343572616577148,6.092126369476318
1667255163203052300,2.52905224609375,-0.4953143000602722,7.396214962005615,6.214160442352295
1667255163205531600,2.53153173828125,-0.41874396800994873,7.4464640617370605,6.32662296295166
1667255163208011000,2.534010986328125,-0.35413774847984314,7.475177764892578,6.417550563812256
1667255163210490000,2.536489990234375,-0.28235307335853577,7.525427341461182,6.5252275466918945
1667255163212969500,2.538969482421875,-0.23210379481315613,7.5804619789123535,6.577869415283203
1667255163215448800,2.54144873046875,-0.21774685382843018,7.616354465484619,6.628118515014648
1667255163217928000,2.543927978515625,-0.22013968229293823,7.606783390045166,6.678368091583252
1667255163220407300,2.5464072265625,-0.2392822653055191,7.5708909034729,6.721438884735107
1667255163222886400,2.548886474609375,-0.27756741642951965,7.525427341461182,6.774080753326416
1667255163225365800,2.55136572265625,-0.32542386651039124,7.496713161468506,6.833901405334473
1667255163227845000,2.55384521484375,-0.36610186100006104,7.458428382873535,6.881757736206055
1667255163230324200,2.55632421875,-0.42352959513664246,7.410571575164795,6.888936519622803
1667255163232803600,2.558803466796875,-0.4666004180908203,7.369893550872803,6.896114826202393
1667255163235283000,2.561282958984375,-0.4953143000602722,7.312466144561768,6.896114826202393
1667255163237762000,2.563761962890625,-0.5144568681716919,7.271788120269775,6.888936519622803
1667255163240241400,2.566241455078125,-0.5623133182525635,7.214360237121582,6.903293132781982
1667255163242720800,2.568720703125,-0.5982056856155396,7.1856465339660645,6.888936519622803
1667255163245200000,2.571199951171875,-0.6340979933738708,7.140182971954346,6.876972198486328
1667255163247679200,2.57367919921875,-0.6652047038078308,7.089933395385742,6.8482584953308105
1667255163250158300,2.576158447265625,-0.6556333899497986,7.063612461090088,6.7932233810424805
1667255163252637700,2.5786376953125,-0.638883650302887,7.0301127433776855,6.742974281311035
1667255163255117000,2.581116943359375,-0.605384111404419,7.015756130218506,6.640082836151123
1667255163257596200,2.58359619140625,-0.5623133182525635,7.015756130218506,6.551548480987549
1667255163260075500,2.586075439453125,-0.5407779216766357,7.020541667938232,6.441478729248047
1667255163262555000,2.588554931640625,-0.5120640397071838,7.061219692230225,6.340980052947998
1667255163265034000,2.591033935546875,-0.5216353535652161,7.061219692230225,6.273981094360352
1667255163267513300,2.593513427734375,-0.5575276613235474,7.061219692230225,6.204588890075684
1667255163269992400,2.595992431640625,-0.5838487148284912,7.027719974517822,6.137589931488037
1667255163272471800,2.598471923828125,-0.6221339106559753,7.0061845779418945,6.0610198974609375
1667255163274951200,2.600951171875,-0.6747759580612183,6.960721015930176,5.994020938873291
1667255163277430300,2.60343017578125,-0.7226324677467346,6.908079147338867,5.917450428009033
1667255163279909600,2.60590966796875,-0.7561319470405579,6.8482584953308105,5.8337016105651855
1667255163282389000,2.608388916015625,-0.7441678643226624,6.757331371307373,5.714060306549072
1667255163284868000,2.6108681640625,-0.7489534616470337,6.697510719299316,5.61116886138916
1667255163287347500,2.613347412109375,-0.7465606927871704,6.625725746154785,5.505885124206543
1667255163289826800,2.615826904296875,-0.7417750358581543,6.553941249847412,5.443671703338623
1667255163292306000,2.618305908203125,-0.7322037220001221,6.503692150115967,5.405386447906494
1667255163294785300,2.620785400390625,-0.7082754969596863,6.4510498046875,5.371886730194092
1667255163297264400,2.623264404296875,-0.672383189201355,6.453442573547363,5.391029357910156
1667255163299743700,2.62574365234375,-0.6364908218383789,6.479763507843018,5.429314613342285
1667255163302223000,2.62822314453125,-0.6149554252624512,6.553941249847412,5.450850009918213
1667255163304702200,2.6307021484375,-0.5862415432929993,6.647261142730713,5.4867424964904785
1667255163307181600,2.633181640625,-0.5718846321105957,6.750152587890625,5.529813289642334
1667255163309661000,2.635660888671875,-0.5694918036460876,6.869793891906738,5.565705299377441
1667255163312140000,2.63814013671875,-0.5814558863639832,6.98704195022583,5.608776092529297
1667255163314619400,2.640619384765625,-0.6005984544754028,7.0923261642456055,5.66620397567749
1667255163317098800,2.6430986328125,-0.6125625967979431,7.190432071685791,5.72841739654541
1667255163319577900,2.645577880859375,-0.6460621356964111,7.264609336853027,5.764309883117676
1667255163322057200,2.64805712890625,-0.6747759580612183,7.336394309997559,5.814558982849121
1667255163324536300,2.650536376953125,-0.727418065071106,7.384250640869141,5.867201328277588
1667255163327015700,2.653015625,-0.7657032608985901,7.410571575164795,5.903093338012695
1667255163329495000,2.6554951171875,-0.7992027401924133,7.439285755157471,5.9437713623046875
1667255163331974100,2.65797412109375,-0.8111668825149536,7.456035137176514,5.9437713623046875
1667255163334453500,2.66045361328125,-0.8015955686569214,7.470392227172852,5.924628734588623
1667255163336932900,2.662932861328125,-0.7776673436164856,7.479963779449463,5.881557941436768
1667255163339412000,2.665411865234375,-0.7585247755050659,7.5086774826049805,5.821737289428711
1667255163341891300,2.667891357421875,-0.7345965504646301,7.534998416900635,5.800201892852783
1667255163344370700,2.67037060546875,-0.7250252366065979,7.5708909034729,5.7786664962768555
1667255163346849800,2.672849853515625,-0.7393822073936462,7.597211837768555,5.79063081741333
1667255163349329200,2.6753291015625,-0.7513462901115417,7.601997375488281,5.828916072845459
1667255163351808300,2.677808349609375,-0.7752745151519775,7.587640762329102,5.8719868659973145
1667255163354287600,2.68028759765625,-0.8039883971214294,7.609176158905029,5.934200286865234
1667255163356767000,2.68276708984375,-0.8446664214134216,7.592426300048828,5.989234924316406
1667255163359246000,2.68524609375,-0.8733802437782288,7.587640762329102,5.998806476593018
1667255163361725400,2.687725341796875,-0.885344386100769,7.5804619789123535,6.003592014312744
1667255163364204800,2.690204833984375,-0.8805587291717529,7.5565338134765625,5.998806476593018
1667255163366684000,2.692683837890625,-0.8685946464538574,7.5565338134765625,5.982056617736816
1667255163369163300,2.695163330078125,-0.8614161610603333,7.544569969177246,5.974878311157227
1667255163371642400,2.697642333984375,-0.8733802437782288,7.546962738037109,5.986842155456543
1667255163374121700,2.700121826171875,-0.9044869542121887,7.5708909034729,6.005984783172607
1667255163376601000,2.70260107421875,-0.9260223507881165,7.630711555480957,6.0466628074646
1667255163379080200,2.705080078125,-0.9451649188995361,7.678567886352539,6.118447303771973
1667255163381559600,2.7075595703125,-0.9499505758285522,7.747959613800049,6.185446739196777
1667255163384039000,2.710038818359375,-0.97148597240448,7.812565803527832,6.230910301208496
1667255163386518000,2.71251806640625,-1.0049854516983032,7.877171993255615,6.293123722076416
1667255163388997400,2.714997314453125,-1.0408778190612793,7.929814338684082,6.350551128387451
1667255163391476700,2.717476806640625,-1.0815558433532715,7.968099594116211,6.372086524963379
1667255163393955800,2.719955810546875,-1.1318050622940063,7.994420528411865,6.38165807723999
1667255163396435200,2.722435302734375,-1.215553879737854,7.989634990692139,6.362515449523926
1667255163398914600,2.72491455078125,-1.3112667798995972,7.980063438415527,6.340980052947998
1667255163401393700,2.7273935546875,-1.4069796800613403,7.975277900695801,6.324230194091797
1667255163403873000,2.729873046875,-1.495514154434204,7.960920810699463,6.302694797515869
1667255163406352100,2.73235205078125,-1.5720844268798828,7.9489569664001465,6.307480335235596
1667255163408831500,2.73483154296875,-1.6630117893218994,7.936992645263672,6.314659118652344
1667255163411310800,2.737310791015625,-1.7156537771224976,7.939385414123535,6.302694797515869
1667255163413790000,2.7397900390625,-1.7563318014144897,7.960920810699463,6.252445697784424
1667255163416269300,2.742269287109375,-1.7802600860595703,7.9585280418396,6.240481376647949
1667255163418748700,2.744748779296875,-1.7730815410614014,7.982456207275391,6.2500529289245605
1667255163421227800,2.747227783203125,-1.7276179790496826,7.994420528411865,6.214160442352295
1667255163423707100,2.74970703125,-1.6654045581817627,8.003992080688477,6.187839508056641
1667255163426186200,2.752186279296875,-1.6079767942428589,8.003992080688477,6.151947021484375
1667255163428665600,2.75466552734375,-1.5314065217971802,8.025527000427246,6.123233318328857
1667255163431145000,2.75714501953125,-1.4524433612823486,8.025527000427246,6.092126369476318
1667255163433624000,2.7596240234375,-1.3663017749786377,8.02074146270752,6.065805435180664
1667255163436103400,2.762103515625,-1.2873386144638062,8.00638484954834,6.034698486328125
1667255163438582800,2.764582763671875,-1.2083754539489746,8.02074146270752,6.008377552032471
1667255163441062000,2.767061767578125,-1.1413763761520386,8.00638484954834,6.008377552032471
1667255163443541200,2.769541259765625,-1.0815558433532715,7.994420528411865,6.001199245452881
1667255163446020400,2.772020263671875,-1.0121639966964722,7.984848976135254,5.996413707733154
1667255163448499700,2.774499755859375,-0.9475577473640442,7.9585280418396,5.970092296600342
1667255163450979000,2.77697900390625,-0.9212366938591003,7.946564197540283,5.927021503448486
1667255163453458200,2.779458251953125,-0.9092726111412048,7.960920810699463,5.881557941436768
1667255163455937500,2.7819375,-0.9355936646461487,7.968099594116211,5.8337016105651855
1667255163458417000,2.7844169921875,-0.9858429431915283,7.953742504119873,5.79780912399292
1667255163460896000,2.78689599609375,-1.0432707071304321,7.936992645263672,5.814558982849121
1667255163463375400,2.789375244140625,-1.098305583000183,7.917850017547607,5.850451469421387
1667255163465854500,2.7918544921875,-1.1724830865859985,7.917850017547607,5.888736724853516
1667255163468333800,2.794333740234375,-1.2059825658798218,7.905886173248291,5.8959150314331055
1667255163470813200,2.796813232421875,-1.2131611108779907,7.872386455535889,5.912664890289307
1667255163473292300,2.799292236328125,-1.191625714302063,7.865208148956299,5.924628734588623
1667255163475771600,2.801771728515625,-1.1461620330810547,7.867600917816162,5.948556900024414
1667255163478251000,2.8042509765625,-1.1102696657180786,7.8556365966796875,5.986842155456543
1667255163480730000,2.806730224609375,-1.074377417564392,7.869993686676025,6.0466628074646
1667255163483209500,2.80920947265625,-1.0360921621322632,7.8819580078125,6.0777692794799805
1667255163485688800,2.811688720703125,-1.0193424224853516,7.884350776672363,6.149554252624512
1667255163488168000,2.81416796875,-1.0360921621322632,7.869993686676025,6.228517532348633
1667255163490647300,2.816647216796875,-1.057627558708191,7.8795647621154785,6.281159400939941
1667255163493126400,2.81912646484375,-1.1198409795761108,7.853243827819824,6.31944465637207
1667255163495605800,2.821605712890625,-1.210768222808838,7.822137355804443,6.321837425231934
1667255163498085000,2.824085205078125,-1.301695466041565,7.791030406951904,6.3122663497924805
1667255163500564200,2.826564208984375,-1.3926228284835815,7.774280548095703,6.345765590667725
1667255163503043600,2.829043701171875,-1.4691931009292603,7.774280548095703,6.362515449523926
1667255163505523000,2.83152294921875,-1.5002998113632202,7.788637638092041,6.379265308380127
1667255163508002000,2.834001953125,-1.4979069232940674,7.836493968963623,6.38883638381958
1667255163510481400,2.8364814453125,-1.4883357286453247,7.872386455535889,6.39601469039917
1667255163512960800,2.838960693359375,-1.4739787578582764,7.9250288009643555,6.436692714691162
1667255163515439900,2.84143994140625,-1.4787644147872925,7.984848976135254,6.465406894683838
1667255163517919200,2.843919189453125,-1.466800332069397,8.051848411560059,6.489335060119629
1667255163520398300,2.8463984375,-1.4715858697891235,8.11406135559082,6.472585201263428
1667255163522877700,2.848877685546875,-1.4620146751403809,8.173882484436035,6.479763507843018
1667255163525357000,2.851357177734375,-1.466800332069397,8.204988479614258,6.479763507843018
1667255163527836200,2.853836181640625,-1.4500504732131958,8.202595710754395,6.489335060119629
1667255163530315500,2.8563154296875,-1.4380863904953003,8.200202941894531,6.515655994415283
1667255163532795000,2.858794921875,-1.3902299404144287,8.161917686462402,6.515655994415283
1667255163535274000,2.86127392578125,-1.428515076637268,8.059026718139648,6.501298904418945
1667255163537753300,2.86375341796875,-1.4691931009292603,7.9728851318359375,6.4701924324035645
1667255163540232700,2.866232666015625,-1.4404792785644531,7.886743545532227,6.427121639251709
1667255163542711800,2.8687119140625,-1.466800332069397,7.812565803527832,6.403193473815918
1667255163545191200,2.871191162109375,-1.435693621635437,7.75753116607666,6.379265308380127
1667255163547670300,2.873670166015625,-1.397408366203308,7.712067604064941,6.3361945152282715
1667255163550149600,2.876149658203125,-1.3591232299804688,7.659425258636475,6.307480335235596
1667255163552629000,2.87862890625,-1.31365966796875,7.623532772064209,6.276373863220215
1667255163555108000,2.881108154296875,-1.28255295753479,7.5708909034729,6.247660160064697
1667255163557587500,2.88358740234375,-1.2370892763137817,7.51585578918457,6.240481376647949
1667255163560066800,2.88606689453125,-1.1748759746551514,7.465606689453125,6.262016773223877
1667255163562546000,2.8885458984375,-1.0552347898483276,7.3986077308654785,6.283552169799805
1667255163565025300,2.891025390625,-1.0265209674835205,7.317251682281494,6.305087566375732
1667255163567504600,2.893504638671875,-1.057627558708191,7.29810905456543,6.340980052947998
1667255163569983700,2.895983642578125,-1.038485050201416,7.322037220001221,6.355337142944336
1667255163572463000,2.898463134765625,-1.0600204467773438,7.393822193145752,6.355337142944336
1667255163574942500,2.9009423828125,-1.098305583000183,7.4847493171691895,6.369693756103516
1667255163577421600,2.903421630859375,-1.1341979503631592,7.601997375488281,6.400800704956055
1667255163579901000,2.90590087890625,-1.1653046607971191,7.690532207489014,6.467799663543701
1667255163582380000,2.908380126953125,-1.2442678213119507,7.802994728088379,6.50608491897583
1667255163584859400,2.910859375,-1.3160524368286133,7.853243827819824,6.558726787567139
1667255163587338800,2.9133388671875,-1.4021940231323242,7.884350776672363,6.589833736419678
1667255163589817900,2.91581787109375,-1.4261223077774048,7.872386455535889,6.604190349578857
1667255163592297200,2.918297119140625,-1.4452649354934692,7.848458290100098,6.573083877563477
1667255163594776600,2.920776611328125,-1.4476577043533325,7.788637638092041,6.544369697570801
1667255163597255700,2.923255615234375,-1.4189438819885254,7.743174076080322,6.4941205978393555
1667255163599735000,2.925735107421875,-1.4165509939193726,7.6977105140686035,6.439085960388184
1667255163602214400,2.92821435546875,-1.399801254272461,7.645068168640137,6.367300987243652
1667255163604693500,2.930693603515625,-1.3639088869094849,7.606783390045166,6.297909259796143
1667255163607172900,2.9331728515625,-1.3423734903335571,7.587640762329102,6.262016773223877
1667255163609652000,2.93565185546875,-1.2945170402526855,7.5708909034729,6.230910301208496
1667255163612131300,2.93813134765625,-1.2323036193847656,7.534998416900635,6.185446739196777
1667255163614610700,2.940610595703125,-1.1676974296569824,7.503891944885254,6.149554252624512
1667255163617089800,2.94308984375,-1.1150553226470947,7.470392227172852,6.092126369476318
1667255163619569200,2.945569091796875,-1.0528420209884644,7.444071292877197,6.041877269744873
1667255163622048500,2.948048583984375,-1.007378339767456,7.3986077308654785,5.979663848876953
1667255163624527600,2.950527587890625,-0.9643075466156006,7.369893550872803,5.92223596572876
1667255163627007000,2.953007080078125,-0.9284151792526245,7.350750923156738,5.867201328277588
1667255163629486000,2.955486083984375,-0.914058268070221,7.365108013153076,5.828916072845459
1667255163631965400,2.95796533203125,-0.9212366938591003,7.3746795654296875,5.838487148284912
1667255163634444800,2.96044482421875,-0.9236295223236084,7.384250640869141,5.86002254486084
1667255163636924000,2.962923828125,-0.9236295223236084,7.3914289474487305,5.8959150314331055
1667255163639403300,2.9654033203125,-0.9475577473640442,7.408178806304932,5.953342914581299
1667255163641882600,2.967882568359375,-0.9403793215751648,7.424928665161133,5.9676995277404785
1667255163644361700,2.97036181640625,-0.9308080077171326,7.432106971740723,5.972485542297363
1667255163646841000,2.972841064453125,-0.9260223507881165,7.436892986297607,5.998806476593018
1667255163649320200,2.9753203125,-0.9116654396057129,7.4464640617370605,6.013163089752197
1667255163651799600,2.977799560546875,-0.885344386100769,7.458428382873535,6.022734642028809
1667255163654279000,2.98027880859375,-0.851844847202301,7.482356548309326,6.022734642028809
1667255163656758000,2.982758056640625,-0.8207381963729858,7.479963779449463,6.027520179748535
1667255163659237400,2.9852373046875,-0.8039883971214294,7.491927623748779,6.041877269744873
1667255163661716700,2.987716796875,-0.7800601720809937,7.496713161468506,6.034698486328125
1667255163664195800,2.99019580078125,-0.7704889178276062,7.5086774826049805,6.056233882904053
1667255163666675200,2.99267529296875,-0.7322037220001221,7.530212879180908,6.075376510620117
1667255163669154600,2.995154541015625,-0.6939185857772827,7.558926582336426,6.1399827003479
1667255163671633700,2.997633544921875,-0.6340979933738708,7.599604606628418,6.173482418060303
1667255163674113000,3.000113037109375,-0.5862415432929993,7.635497093200684,6.1950178146362305
1667255163676592400,3.00259228515625,-0.5479564070701599,7.661818027496338,6.2189459800720215
1667255163679071500,3.005071533203125,-0.519242525100708,7.692924976348877,6.221338748931885
1667255163681550800,3.00755078125,-0.5048855543136597,7.716853141784668,6.223731517791748
1667255163684030200,3.0100302734375,-0.5216353535652161,7.747959613800049,6.2428741455078125
1667255163686509300,3.01250927734375,-0.5335994362831116,7.786244869232178,6.269195556640625
1667255163688988700,3.01498876953125,-0.5479564070701599,7.822137355804443,6.276373863220215
1667255163691467800,3.0174677734375,-0.5599204897880554,7.867600917816162,6.2668023109436035
1667255163693947100,3.019947021484375,-0.5742774605751038,7.903493404388428,6.281159400939941
1667255163696426500,3.022426513671875,-0.5718846321105957,7.946564197540283,6.2668023109436035
1667255163698905600,3.024905517578125,-0.5718846321105957,7.980063438415527,6.233303070068359
1667255163701385000,3.027385009765625,-0.607776939868927,8.011170387268066,6.206982135772705
1667255163703864300,3.0298642578125,-0.6436693072319031,8.025527000427246,6.173482418060303
1667255163706343400,3.032343505859375,-0.7250252366065979,8.032705307006836,6.178267955780029
1667255163708822800,3.03482275390625,-0.8279166221618652,8.02074146270752,6.149554252624512
1667255163711302100,3.03730224609375,-0.9116654396057129,7.989634990692139,6.120840549468994
1667255163713781200,3.03978125,-1.0145567655563354,7.936992645263672,6.10169792175293
1667255163716260600,3.042260498046875,-1.093519926071167,7.848458290100098,6.068198204040527
1667255163718740000,3.044739990234375,-1.1772687435150146,7.75753116607666,6.015556335449219
1667255163721219000,3.047218994140625,-1.25144624710083,7.678567886352539,5.941378593444824
1667255163723698400,3.049698486328125,-1.2993026971817017,7.585247993469238,5.8719868659973145
1667255163726177500,3.052177490234375,-1.3591232299804688,7.520641803741455,5.795416355133057
1667255163728657000,3.054656982421875,-1.3758729696273804,7.472784996032715,5.742774486541748
1667255163731136300,3.05713623046875,-1.3854442834854126,7.4464640617370605,5.694917678833008
1667255163733615400,3.059615478515625,-1.3495519161224365,7.472784996032715,5.654240131378174
1667255163736094700,3.0620947265625,-1.301695466041565,7.496713161468506,5.601597785949707
1667255163738574000,3.064573974609375,-1.2251251935958862,7.546962738037109,5.568098068237305
1667255163741053200,3.06705322265625,-1.1198409795761108,7.621140003204346,5.556134223937988
1667255163743532500,3.069532470703125,-1.0049854516983032,7.6737823486328125,5.589633464813232
1667255163746012000,3.072011962890625,-0.9044869542121887,7.743174076080322,5.66620397567749
1667255163748491000,3.074490966796875,-0.7920243144035339,7.776673793792725,5.733202934265137
1667255163750970400,3.076970458984375,-0.7082754969596863,7.776673793792725,5.802595138549805
1667255163753449500,3.079449462890625,-0.6484549641609192,7.77188777923584,5.824130535125732
1667255163755928800,3.0819287109375,-0.6173482537269592,7.75753116607666,5.8337016105651855
1667255163758408200,3.084408203125,-0.5886343717575073,7.740781307220459,5.824130535125732
1667255163760887300,3.08688720703125,-0.5838487148284912,7.704888820648193,5.7858452796936035
1667255163763366700,3.08936669921875,-0.6293123364448547,7.6498541831970215,5.733202934265137
1667255163765846000,3.091845947265625,-0.6963114142417908,7.606783390045166,5.687739372253418
1667255163768325000,3.0943251953125,-0.7896314859390259,7.5804619789123535,5.675775527954102
1667255163770804500,3.096804443359375,-0.8781659007072449,7.568498134613037,5.6590256690979
1667255163773283600,3.09928369140625,-0.9882357716560364,7.57806921005249,5.663811206817627
1667255163775763000,3.101762939453125,-1.0767701864242554,7.616354465484619,5.66620397567749
1667255163778242300,3.1042421875,-1.160519003868103,7.6666035652160645,5.670989513397217
1667255163780721400,3.106721435546875,-1.2299108505249023,7.70967435836792,5.702096462249756
1667255163783200800,3.10920068359375,-1.2681959867477417,7.8077802658081055,5.7164530754089355
1667255163785680100,3.11168017578125,-1.2897313833236694,7.893921852111816,5.7547383308410645
1667255163788159200,3.1141591796875,-1.2705888748168945,8.003992080688477,5.7547383308410645
1667255163790638600,3.116638671875,-1.2299108505249023,8.09252643585205,5.769095420837402
1667255163793118000,3.119117919921875,-1.1676974296569824,8.176275253295898,5.7547383308410645
1667255163795597000,3.12159716796875,-1.1030912399291992,8.271987915039062,5.747560024261475
1667255163798076400,3.124076416015625,-1.007378339767456,8.37009334564209,5.745167255401611
1667255163800555500,3.126555419921875,-0.9308080077171326,8.429914474487305,5.742774486541748
1667255163803035000,3.129034912109375,-0.8757730722427368,8.489734649658203,5.737988471984863
1667255163805514200,3.13151416015625,-0.8231309652328491,8.508877754211426,5.733202934265137
1667255163807993300,3.133993408203125,-0.7968099117279053,8.523234367370605,5.72841739654541
1667255163810472700,3.13647265625,-0.8135597109794617,8.520841598510742,5.733202934265137
1667255163812952000,3.1389521484375,-0.8207381963729858,8.46341323852539,5.6925249099731445
1667255163815431200,3.14143115234375,-0.8398807644844055,8.382058143615723,5.637490272521973
1667255163817910500,3.14391064453125,-0.882951557636261,8.271987915039062,5.570491313934326
1667255163820390000,3.146389892578125,-0.9379864931106567,8.12123966217041,5.465207099914551
1667255163822869000,3.148868896484375,-0.9619147181510925,7.975277900695801,5.347958564758301
1667255163825348400,3.151348388671875,-0.9906286001205444,7.822137355804443,5.242674350738525
1667255163827827700,3.15382763671875,-0.9930213689804077,7.664210796356201,5.158925533294678
1667255163830306800,3.156306884765625,-0.9762716293334961,7.527820110321045,5.056034088134766
1667255163832786200,3.1587861328125,-0.9355936646461487,7.377072334289551,5.008177757263184
1667255163835265500,3.161265625,-0.8973084688186646,7.2430739402771,4.9531426429748535
1667255163837744600,3.16374462890625,-0.8685946464538574,7.140182971954346,4.914857864379883
1667255163840224000,3.16622412109375,-0.8303094506263733,7.04925537109375,4.914857864379883
1667255163842703400,3.168703369140625,-0.8039883971214294,6.98704195022583,4.926821708679199
1667255163845182500,3.171182373046875,-0.7824530005455017,6.939185619354248,4.941178798675537
1667255163847661800,3.173661865234375,-0.7585247755050659,6.929614543914795,4.969892501831055
1667255163850141000,3.176140869140625,-0.7226324677467346,6.943971157073975,5.036891460418701
1667255163852620300,3.178620361328125,-0.7130611538887024,6.965506553649902,5.099104881286621
1667255163855099600,3.181099609375,-0.7130611538887024,6.989434719085693,5.1565327644348145
1667255163857578800,3.183578857421875,-0.7154539823532104,7.03489875793457,5.223531723022461
1667255163860058000,3.18605810546875,-0.7465606927871704,7.0923261642456055,5.26899528503418
1667255163862537500,3.188537353515625,-0.7657032608985901,7.161718368530273,5.319244861602783
1667255163865016600,3.1910166015625,-0.8159525394439697,7.240681171417236,5.3934221267700195
1667255163867496000,3.193495849609375,-0.8733802437782288,7.343572616577148,5.458028316497803
1667255163869975000,3.19597509765625,-0.9451649188995361,7.458428382873535,5.515456199645996
1667255163872454400,3.198454345703125,-1.031306505203247,7.587640762329102,5.5968122482299805
1667255163874933800,3.200933837890625,-1.1102696657180786,7.733603000640869,5.6925249099731445
1667255163877412900,3.203412841796875,-1.191625714302063,7.860422611236572,5.776273727416992
1667255163879892200,3.205892333984375,-1.2873386144638062,7.9728851318359375,5.898307800292969
1667255163882371600,3.20837158203125,-1.3591232299804688,8.075776100158691,6.010770320892334
1667255163884850700,3.2108505859375,-1.3950155973434448,8.169096946716309,6.128018856048584
1667255163887330000,3.213330078125,-1.3806586265563965,8.260024070739746,6.240481376647949
1667255163889809400,3.215809326171875,-1.3543375730514526,8.319844245910645,6.348158359527588
1667255163892288500,3.21828857421875,-1.31365966796875,8.37966537475586,6.453442573547363
1667255163894767900,3.220767822265625,-1.2729816436767578,8.432307243347168,6.5491557121276855
