time,seconds_elapsed,z,y,x
1667255160677412900,0.003412841796875,0.5027980804443359,-0.23695039749145508,0.05530357360839844
1667255160682371300,0.008371337890625,0.6412801742553711,-0.1587963104248047,0.26504039764404297
1667255160687330000,0.013330078125,0.4489741325378418,-0.14983701705932617,0.344057559967041
1667255160692288500,0.01828857421875,-0.27417707443237305,-0.08663225173950195,0.060332298278808594
1667255160697247000,0.0232470703125,0.013795852661132812,0.13347339630126953,-0.03405475616455078
1667255160702205400,0.028205322265625,0.2071514129638672,0.5036301612854004,0.38398218154907227
1667255160707164200,0.0331640625,0.2866806983947754,0.8813118934631348,0.881289005279541
1667255160712122600,0.03812255859375,0.17982912063598633,0.9760489463806152,1.2318105697631836
1667255160717081000,0.0430810546875,-0.026202678680419922,0.9728927612304688,1.4149365425109863
1667255160722039600,0.04803955078125,-0.08413887023925781,0.885922908782959,1.398756980895996
1667255160726998000,0.052998046875,-0.0786142349243164,0.8543148040771484,1.2881083488464355
1667255160731956700,0.057956787109375,0.035192012786865234,0.8411312103271484,1.1729164123535156
1667255160736915200,0.062915283203125,0.1627645492553711,0.6757903099060059,0.9261293411254883
1667255160741873700,0.067873779296875,0.291475772857666,0.4860506057739258,0.6702499389648438
1667255160746832100,0.07283203125,0.06961822509765625,0.3705258369445801,0.7186627388000488
1667255160751790800,0.077790771484375,-2.137601852416992,-0.01916790008544922,1.2036933898925781
1667255160756749300,0.082749267578125,-1.320652961730957,-0.11445808410644531,1.472508430480957
1667255160761707800,0.087707763671875,-1.210268497467041,-0.2752513885498047,1.5527362823486328
1667255160766666200,0.092666259765625,-0.2750124931335449,-0.3242201805114746,1.4067211151123047
1667255160771625000,0.097625,1.5649104118347168,-0.3356485366821289,0.7367630004882812
1667255160776583400,0.10258349609375,3.6220505237579346,-0.4248175621032715,-0.5900373458862305
1667255160781542000,0.1075419921875,3.9338979721069336,-0.9581995010375977,-2.251829147338867
1667255160786500400,0.112500244140625,1.2969627380371094,-1.865112066268921,-3.684091567993164
1667255160791459000,0.117458984375,-1.8922353982925415,-2.3295342922210693,-4.475053787231445
1667255160796417500,0.12241748046875,-3.238995313644409,-1.8204569816589355,-4.414516925811768
1667255160801376000,0.1273759765625,-3.0826175212860107,-0.8403644561767578,-3.098567008972168
1667255160806334500,0.13233447265625,-2.157809257507324,0.19374990463256836,-0.9621052742004395
1667255160811293200,0.137293212890625,-1.122831106185913,0.9330458641052246,0.7582235336303711
1667255160816251600,0.142251708984375,-0.43267273902893066,1.1982898712158203,1.444361686706543
1667255160821210000,0.147210205078125,0.09009003639221191,1.1359105110168457,1.3262510299682617
1667255160826168600,0.15216845703125,0.34995579719543457,0.8795218467712402,0.9132795333862305
1667255160831127300,0.157127197265625,0.46398401260375977,0.8254308700561523,0.6310214996337891
1667255160836085800,0.162085693359375,0.6004271507263184,1.0250506401062012,0.5588884353637695
1667255160841044200,0.167044189453125,0.652996301651001,1.184983730316162,0.5433816909790039
1667255160846002700,0.172002685546875,0.4965057373046875,1.1814799308776855,0.6671562194824219
1667255160850961400,0.17696142578125,0.03619384765625,0.8670363426208496,0.9151349067687988
1667255160855919900,0.181919921875,-0.40108823776245117,0.1737508773803711,1.1028809547424316
1667255160860878300,0.18687841796875,-0.564110279083252,-0.29140663146972656,1.3861989974975586
1667255160865836800,0.1918369140625,-0.7251520156860352,-0.2372608184814453,1.518237590789795
1667255160870795300,0.196795166015625,-0.8750388622283936,0.07324075698852539,1.28456449508667
1667255160875754000,0.20175390625,-1.043546199798584,0.38073110580444336,0.8799409866333008
1667255160880712400,0.20671240234375,-1.1551265716552734,0.5372061729431152,0.6260337829589844
1667255160885671000,0.2116708984375,-1.0825157165527344,0.5265464782714844,0.41842222213745117
1667255160890629400,0.21662939453125,-0.9546754360198975,0.2527775764465332,0.2534627914428711
1667255160895588000,0.221588134765625,-0.5676608085632324,0.002864837646484375,0.09751605987548828
1667255160900546600,0.226546630859375,-0.1680011749267578,-0.15906333923339844,-0.11273384094238281
1667255160905505000,0.231505126953125,0.09704160690307617,-0.23101806640625,-0.4678950309753418
1667255160910463500,0.23646337890625,0.18683815002441406,-0.24932050704956055,-0.7638115882873535
1667255160915422200,0.241422119140625,0.060541629791259766,-0.3440237045288086,-0.8364448547363281
1667255160920380700,0.246380615234375,-0.1468968391418457,-0.5338916778564453,-0.8207259178161621
1667255160925339100,0.251339111328125,-0.40581178665161133,-0.5819931030273438,-0.7375507354736328
1667255160930297600,0.256297607421875,-0.6016073226928711,-0.47073936462402344,-0.5793099403381348
1667255160935256300,0.26125634765625,-0.618248462677002,-0.27719879150390625,-0.41593265533447266
1667255160940214800,0.26621484375,-0.4532947540283203,-0.1602463722229004,-0.34300708770751953
1667255160945173200,0.27117333984375,-0.23539304733276367,-0.24480962753295898,-0.3198661804199219
1667255160950131700,0.276131591796875,-0.03384256362915039,-0.45107603073120117,-0.35197925567626953
1667255160955090400,0.28109033203125,0.12620067596435547,-0.6385312080383301,-0.45655250549316406
1667255160960049000,0.286048828125,0.3648862838745117,-0.7868118286132812,-0.6431598663330078
1667255160965007400,0.29100732421875,0.4814639091491699,-1.0072379112243652,-0.7710442543029785
1667255160969965800,0.2959658203125,0.4606800079345703,-1.1372623443603516,-0.677971363067627
1667255160974924500,0.300924560546875,0.3967432975769043,-1.0616650581359863,-0.49716854095458984
1667255160979883000,0.305883056640625,0.47306060791015625,-0.8626542091369629,-0.37561845779418945
1667255160984841500,0.310841552734375,0.6207351684570312,-0.627164363861084,-0.30566930770874023
1667255160989800000,0.315800048828125,0.6043338775634766,-0.49660444259643555,-0.10988092422485352
1667255160994758400,0.32075830078125,0.4366636276245117,-0.4016299247741699,0.2495746612548828
1667255160999717000,0.325717041015625,0.2149348258972168,-0.18041181564331055,0.7317209243774414
1667255161004675600,0.330675537109375,0.1505756378173828,0.19083642959594727,1.1404786109924316
1667255161009634000,0.335634033203125,0.2487049102783203,0.6101870536804199,1.4282574653625488
1667255161014592500,0.340592529296875,0.3823680877685547,1.0418243408203125,1.5832180976867676
1667255161019551200,0.34555126953125,0.4582395553588867,1.3602328300476074,1.7532362937927246
1667255161024509700,0.350509765625,0.5674538612365723,1.5395941734313965,1.9696283340454102
1667255161029468200,0.35546826171875,0.457822322845459,1.5039987564086914,1.9925894737243652
1667255161034426600,0.360426513671875,0.3674502372741699,1.3407363891601562,1.9499382972717285
1667255161039385000,0.365385009765625,0.38864994049072266,1.1456255912780762,1.8861160278320312
1667255161044343800,0.37034375,0.4933505058288574,1.0088281631469727,1.7739434242248535
1667255161049302300,0.37530224609375,0.5452103614807129,0.8104581832885742,1.589576244354248
1667255161054260700,0.3802607421875,0.7065896987915039,0.6298003196716309,1.268587589263916
1667255161059219500,0.385219482421875,0.8285517692565918,0.5090374946594238,0.8566241264343262
1667255161064178000,0.390177978515625,0.8985095024108887,0.5000872611999512,0.38511228561401367
1667255161069136400,0.395136474609375,0.9433794021606445,0.5134458541870117,-0.10475730895996094
1667255161074094800,0.4000947265625,0.854255199432373,0.46992063522338867,-0.5288138389587402
1667255161079053600,0.405053466796875,0.4503192901611328,0.2782292366027832,-0.800652027130127
1667255161084012000,0.410011962890625,-0.10534954071044922,-0.07782602310180664,-0.8698306083679199
1667255161088970500,0.414970458984375,-0.5205097198486328,-0.4147205352783203,-0.9306817054748535
1667255161093929000,0.419928955078125,-0.7351374626159668,-0.6631708145141602,-1.0271868705749512
1667255161098887400,0.424887451171875,-0.9165644645690918,-0.8514494895935059,-1.1858773231506348
1667255161103846100,0.42984619140625,-1.092076301574707,-0.8605108261108398,-1.4373416900634766
1667255161108804600,0.4348046875,-1.1279289722442627,-0.6848673820495605,-1.670565128326416
1667255161113763000,0.43976318359375,-0.9874715805053711,-0.4589824676513672,-1.7249317169189453
1667255161118721500,0.444721435546875,-0.7487378120422363,-0.32217836380004883,-1.4806017875671387
1667255161123680300,0.44968017578125,-0.615574836730957,-0.1897873878479004,-1.0661215782165527
1667255161128638700,0.454638671875,-0.4380769729614258,0.0014486312866210938,-0.5791530609130859
1667255161133597200,0.45959716796875,-0.08628988265991211,0.2711043357849121,-0.02400684356689453
1667255161138555600,0.4645556640625,0.23188447952270508,0.7213759422302246,0.5016560554504395
1667255161143514400,0.469514404296875,0.9029335975646973,1.1457209587097168,0.8156309127807617
1667255161148472800,0.474472900390625,1.0405683517456055,1.3058714866638184,0.8044662475585938
1667255161153431300,0.479431396484375,0.8924417495727539,1.1082687377929688,0.4340791702270508
1667255161158389800,0.4843896484375,0.8640632629394531,0.7656345367431641,-0.1707592010498047
1667255161163348200,0.48934814453125,0.8736510276794434,0.4211392402648926,-0.7183036804199219
1667255161168307000,0.494306884765625,0.8922314643859863,0.1140298843383789,-1.0881528854370117
1667255161173265400,0.499265380859375,0.8179788589477539,-0.15790319442749023,-1.2596435546875
1667255161178223900,0.504223876953125,0.666013240814209,-0.4603724479675293,-1.2777810096740723
1667255161183182300,0.509182373046875,0.5843472480773926,-0.665919303894043,-1.173823356628418
1667255161188141000,0.51414111328125,0.6350955963134766,-0.7859749794006348,-1.146245002746582
1667255161193099500,0.519099609375,1.0671076774597168,-0.7372450828552246,-1.1028556823730469
1667255161198058000,0.52405810546875,1.5105617046356201,-0.5891003608703613,-1.0253887176513672
1667255161203016400,0.529016357421875,1.5709950923919678,-0.4412851333618164,-0.8881216049194336
1667255161207975200,0.53397509765625,1.4427411556243896,-0.2008528709411621,-0.7114801406860352
1667255161212933600,0.53893359375,1.049830436706543,0.12227058410644531,-0.5059142112731934
1667255161217892000,0.54389208984375,0.5990862846374512,0.457305908203125,-0.24690532684326172
1667255161222850600,0.5488505859375,-0.06260037422180176,0.49547243118286133,-0.03862333297729492
1667255161227809300,0.553809326171875,-0.3403787612915039,0.2054424285888672,0.00022411346435546875
1667255161232767700,0.558767822265625,-0.2602837085723877,0.37804603576660156,0.27230358123779297
1667255161237726200,0.563726318359375,-0.19820165634155273,0.7484383583068848,0.5057730674743652
1667255161242684700,0.5686845703125,-0.29275059700012207,0.8010377883911133,0.38731908798217773
1667255161247643100,0.57364306640625,-0.3797485828399658,0.6044726371765137,0.12353086471557617
1667255161252601900,0.578601806640625,-0.2376415729522705,0.27069568634033203,-0.17683887481689453
1667255161257560300,0.583560302734375,0.014163494110107422,-0.1428532600402832,-0.538261890411377
1667255161262518800,0.588518798828125,0.24995756149291992,-0.47994470596313477,-0.845649242401123
1667255161267477200,0.593477294921875,0.35840344429016113,-0.7352232933044434,-1.0080156326293945
1667255161272436000,0.59843603515625,0.3289477825164795,-0.9326291084289551,-1.1160016059875488
1667255161277394400,0.60339453125,0.21731901168823242,-1.0601615905761719,-1.2440967559814453
1667255161282353000,0.608352783203125,0.05618143081665039,-1.1676440238952637,-1.373575210571289
1667255161287311400,0.613311279296875,-0.09731435775756836,-1.2219562530517578,-1.4472618103027344
1667255161292270000,0.61827001953125,-0.28606367111206055,-1.2485880851745605,-1.4166102409362793
1667255161297228500,0.623228515625,-0.5015506744384766,-1.2526702880859375,-1.2755012512207031
1667255161302187000,0.62818701171875,-0.8380467891693115,-1.364729404449463,-1.1965808868408203
1667255161307145500,0.6331455078125,-0.6907780170440674,-1.4868254661560059,-1.187364101409912
1667255161312104200,0.638104248046875,-0.46550512313842773,-1.2566494941711426,-1.1573004722595215
1667255161317062700,0.643062744140625,-0.1063385009765625,-0.8938207626342773,-1.166135311126709
1667255161322021000,0.648021240234375,0.31868839263916016,-0.5976414680480957,-1.2440080642700195
1667255161326979600,0.6529794921875,0.4770050048828125,-0.4265928268432617,-1.2554044723510742
1667255161331938000,0.65793798828125,0.5395750999450684,-0.30511951446533203,-1.0510454177856445
1667255161336896800,0.662896728515625,0.4341120719909668,-0.32389354705810547,-0.7994046211242676
1667255161341855200,0.667855224609375,0.45430469512939453,-0.432924747467041,-0.7019500732421875
1667255161346813700,0.672813720703125,0.5232481956481934,-0.5207653045654297,-0.6770534515380859
1667255161351772200,0.677772216796875,0.5669703483581543,-0.5650110244750977,-0.7016019821166992
1667255161356731000,0.68273095703125,0.6195709705352783,-0.5685553550720215,-0.7095036506652832
1667255161361689300,0.687689453125,0.7054624557495117,-0.5307917594909668,-0.6730904579162598
1667255161366647800,0.692647705078125,0.7252435684204102,-0.5070805549621582,-0.6028661727905273
1667255161371606300,0.697606201171875,0.727515697479248,-0.5297770500183105,-0.5589494705200195
1667255161376564700,0.702564697265625,0.7191438674926758,-0.5644974708557129,-0.4986248016357422
1667255161381523500,0.7075234375,0.6928597688674927,-0.5852146148681641,-0.36308908462524414
1667255161386482000,0.71248193359375,0.5711055994033813,-0.5529289245605469,-0.2975893020629883
1667255161391440400,0.7174404296875,0.34301936626434326,-0.48341798782348633,-0.1745166778564453
1667255161396398800,0.72239892578125,-0.0688244104385376,-0.3339991569519043,-0.03264141082763672
1667255161401357600,0.727357666015625,-0.5654655694961548,-0.16308927536010742,0.15691041946411133
1667255161406316000,0.73231591796875,-0.9288706183433533,-0.09878349304199219,0.2861204147338867
1667255161411274500,0.7372744140625,-1.0744514465332031,-0.07609415054321289,0.4227585792541504
1667255161416233000,0.74223291015625,-1.105755090713501,-0.030763626098632812,0.48456668853759766
1667255161421191700,0.747191650390625,-1.0611095428466797,0.04958343505859375,0.4887118339538574
1667255161426150100,0.752150146484375,-0.9858583211898804,0.18544578552246094,0.5023660659790039
1667255161431108600,0.757108642578125,-0.8637228608131409,0.31053686141967773,0.5054740905761719
1667255161436067000,0.762067138671875,-0.7341288328170776,0.37723731994628906,0.47556304931640625
1667255161441025800,0.76702587890625,-0.4884990453720093,0.2958369255065918,0.3579826354980469
1667255161445984300,0.771984375,-0.26665639877319336,0.0928502082824707,0.2109661102294922
1667255161450942700,0.776942626953125,-0.16543269157409668,-0.12549686431884766,0.01604175567626953
1667255161455901200,0.781901123046875,-0.14793884754180908,-0.2750849723815918,-0.17370223999023438
1667255161460859600,0.786859619140625,-0.09127426147460938,-0.3398127555847168,-0.24751758575439453
1667255161465818400,0.791818359375,-0.0026853084564208984,-0.3896942138671875,-0.22588491439819336
1667255161470776800,0.79677685546875,0.07375049591064453,-0.38023805618286133,-0.17548084259033203
1667255161475735300,0.8017353515625,0.14315879344940186,-0.3144817352294922,-0.15573978424072266
1667255161480693800,0.80669384765625,0.18497872352600098,-0.21889257431030273,-0.1309375762939453
1667255161485652500,0.811652587890625,0.23133385181427002,-0.1516275405883789,-0.13005876541137695
1667255161490611000,0.81661083984375,0.3198808431625366,-0.027805328369140625,-0.14494037628173828
1667255161495569400,0.8215693359375,0.44031834602355957,0.027667522430419922,-0.1413278579711914
1667255161500527900,0.82652783203125,0.6279741525650024,-0.025904178619384766,-0.1911172866821289
1667255161505486600,0.831486572265625,0.8245947360992432,-0.15450429916381836,-0.3260965347290039
1667255161510445000,0.836445068359375,0.9675540924072266,-0.2518930435180664,-0.3754568099975586
1667255161515403500,0.841403564453125,0.9996910095214844,-0.2863473892211914,-0.3739023208618164
1667255161520362000,0.846362060546875,0.9424097537994385,-0.3237624168395996,-0.4250521659851074
1667255161525320700,0.85132080078125,0.8458212614059448,-0.319063663482666,-0.5212979316711426
1667255161530279200,0.856279052734375,0.7005196809768677,-0.2631034851074219,-0.5979881286621094
1667255161535237600,0.861237548828125,0.5926686525344849,-0.2655200958251953,-0.6932806968688965
1667255161540196000,0.866196044921875,0.5386320948600769,-0.3269829750061035,-0.7975878715515137
1667255161545154600,0.871154541015625,0.41127651929855347,-0.4149937629699707,-0.8132596015930176
1667255161550113300,0.87611328125,0.24438458681106567,-0.45816755294799805,-0.7216057777404785
1667255161555071700,0.88107177734375,0.045915961265563965,-0.4355645179748535,-0.6289892196655273
1667255161560030200,0.8860302734375,-0.15343046188354492,-0.40012216567993164,-0.5710315704345703
1667255161564988700,0.89098876953125,-0.24874401092529297,-0.3318915367126465,-0.5164408683776855
1667255161569947400,0.895947509765625,-0.17302507162094116,-0.2644028663635254,-0.5139474868774414
1667255161574905900,0.90090576171875,0.026485919952392578,-0.21542787551879883,-0.4967045783996582
1667255161579864300,0.9058642578125,0.25155556201934814,-0.19846010208129883,-0.4522695541381836
1667255161584822800,0.91082275390625,0.48011767864227295,-0.2187671661376953,-0.4942812919616699
1667255161589781200,0.91578125,0.7390778064727783,-0.2451953887939453,-0.5461239814758301
1667255161594740000,0.920739990234375,0.8434818983078003,-0.2911710739135742,-0.6193714141845703
1667255161599698400,0.925698486328125,0.7614898681640625,-0.27138710021972656,-0.7075433731079102
1667255161604657000,0.930656982421875,0.4753291606903076,-0.22362041473388672,-0.7530155181884766
1667255161609615400,0.935615478515625,0.09473735094070435,-0.2111811637878418,-0.7905035018920898
1667255161614574000,0.940573974609375,-0.2630501985549927,-0.30131053924560547,-0.8418703079223633
1667255161619532500,0.945532470703125,-0.4784303307533264,-0.5950112342834473,-0.9983558654785156
1667255161624491000,0.950490966796875,-0.6452453136444092,-0.7836318016052246,-1.0824365615844727
1667255161629449500,0.955449462890625,-0.7593868374824524,-0.7054710388183594,-0.9708786010742188
1667255161634408200,0.960408203125,-0.9074361324310303,-0.4610018730163574,-0.7488512992858887
1667255161639366700,0.96536669921875,-0.804711639881134,-0.20846033096313477,-0.5619044303894043
1667255161644325000,0.9703251953125,-0.6206084489822388,-0.06848716735839844,-0.4107632637023926
1667255161649283600,0.97528369140625,-0.3595375716686249,0.03999519348144531,-0.21985960006713867
1667255161654242300,0.9802421875,-0.15130066871643066,0.17604970932006836,-0.012636661529541016
1667255161659200800,0.98520068359375,0.07531273365020752,0.3127121925354004,0.13521242141723633
1667255161664159200,0.9901591796875,0.3407124876976013,0.3861370086669922,0.25917673110961914
1667255161669117700,0.99511767578125,0.6048864126205444,0.45192527770996094,0.3540310859680176
1667255161674076200,1.000076171875,0.7752604484558105,0.47872495651245117,0.46915245056152344
1667255161679035000,1.005034912109375,0.818914532661438,0.4619894027709961,0.5508813858032227
1667255161683993300,1.009993408203125,0.7552677989006042,0.35721540451049805,0.5262799263000488
1667255161688951800,1.014951904296875,0.5852717161178589,0.15735387802124023,0.39745569229125977
1667255161693910300,1.01991015625,0.39132896065711975,-0.020917892456054688,0.22614288330078125
1667255161698869000,1.024868896484375,0.2564200758934021,-0.19044733047485352,0.05741453170776367
1667255161703827500,1.029827392578125,0.14405465126037598,-0.2843499183654785,-0.04353618621826172
1667255161708786000,1.034785888671875,0.07085305452346802,-0.31732749938964844,-0.050838470458984375
1667255161713744400,1.039744384765625,-0.01572209596633911,-0.29305219650268555,-0.031871795654296875
1667255161718702800,1.044702880859375,-0.09210246801376343,-0.2579174041748047,-0.10029458999633789
1667255161723661600,1.04966162109375,-0.17880916595458984,-0.20569896697998047,-0.2275400161743164
1667255161728620000,1.0546201171875,-0.2154255211353302,-0.14944839477539062,-0.3147115707397461
1667255161733578500,1.05957861328125,-0.18018221855163574,-0.1226968765258789,-0.35121774673461914
1667255161738537200,1.064537109375,-0.0842025876045227,-0.1145944595336914,-0.3361039161682129
1667255161743495700,1.06949560546875,0.051529645919799805,-0.1714487075805664,-0.3887629508972168
1667255161748454100,1.0744541015625,0.17282885313034058,-0.30866003036499023,-0.46940040588378906
1667255161753412600,1.07941259765625,0.30267757177352905,-0.39496850967407227,-0.5324311256408691
1667255161758371300,1.084371337890625,0.486533522605896,-0.42252349853515625,-0.5597190856933594
1667255161763329800,1.089329833984375,0.6459185481071472,-0.5177955627441406,-0.5347094535827637
1667255161768288300,1.094288330078125,0.7597783207893372,-0.6314983367919922,-0.5803918838500977
1667255161773246700,1.099246826171875,0.8475527167320251,-0.7274026870727539,-0.6967582702636719
1667255161778205200,1.104205078125,0.9192456603050232,-0.7753915786743164,-0.8933558464050293
1667255161783164000,1.109163818359375,0.8993383049964905,-0.7989859580993652,-1.1083273887634277
1667255161788122400,1.114122314453125,0.8773118257522583,-0.7943692207336426,-1.2453937530517578
1667255161793080800,1.119080810546875,0.8055351376533508,-0.7341208457946777,-1.257347583770752
1667255161798039300,1.124039306640625,0.7473686337471008,-0.6328458786010742,-1.1934871673583984
1667255161802997800,1.128997802734375,0.7005428671836853,-0.5063591003417969,-1.1195287704467773
1667255161807956500,1.13395654296875,0.6402087807655334,-0.4038124084472656,-0.9984102249145508
1667255161812915000,1.1389150390625,0.5324247479438782,-0.3348865509033203,-0.8253660202026367
1667255161817873400,1.143873291015625,0.35990747809410095,-0.30687618255615234,-0.6659102439880371
1667255161822831900,1.148831787109375,0.18646609783172607,-0.29958057403564453,-0.5329108238220215
1667255161827790600,1.15379052734375,0.034445106983184814,-0.2762150764465332,-0.5320777893066406
1667255161832749000,1.1587490234375,0.055638253688812256,-0.209686279296875,-0.6340169906616211
1667255161837707500,1.16370751953125,0.10831886529922485,-0.13028335571289062,-0.6878519058227539
1667255161842666000,1.168666015625,0.1597549319267273,0.005496978759765625,-0.6479792594909668
1667255161847624700,1.173624755859375,0.22523313760757446,0.13048934936523438,-0.578923225402832
1667255161852583200,1.178583251953125,0.23079445958137512,0.17314672470092773,-0.542698860168457
1667255161857541600,1.183541748046875,0.16938987374305725,0.1900482177734375,-0.5560827255249023
1667255161862500000,1.1885,0.07590892910957336,0.20637083053588867,-0.595099925994873
1667255161867458800,1.193458740234375,-0.04318445920944214,0.23304319381713867,-0.6026496887207031
1667255161872417300,1.198417236328125,-0.1369698941707611,0.25937414169311523,-0.6099467277526855
1667255161877375700,1.203375732421875,-0.22368162870407104,0.24122047424316406,-0.5657424926757812
1667255161882334200,1.208334228515625,-0.22748920321464539,0.19890928268432617,-0.47613048553466797
1667255161887293000,1.21329296875,-0.1301288604736328,0.1600046157836914,-0.4450535774230957
1667255161892251400,1.21825146484375,-0.018446236848831177,0.13651657104492188,-0.39611339569091797
1667255161897209900,1.2232099609375,0.13293695449829102,0.19501304626464844,-0.30662059783935547
1667255161902168300,1.228168212890625,0.27499932050704956,0.2873711585998535,-0.17061328887939453
1667255161907126800,1.233126708984375,0.43237924575805664,0.4142298698425293,-0.009293079376220703
1667255161912085500,1.23808544921875,0.5766431093215942,0.5239071846008301,0.15254640579223633
1667255161917044000,1.2430439453125,0.7946270704269409,0.5341620445251465,0.2518439292907715
1667255161922002400,1.24800244140625,0.9179001450538635,0.457460880279541,0.2660551071166992
1667255161926961000,1.2529609375,0.8838675618171692,0.35880136489868164,0.21668195724487305
1667255161931919600,1.257919677734375,0.712754487991333,0.24213647842407227,0.15613412857055664
1667255161936878000,1.262878173828125,0.37944021821022034,0.11131858825683594,0.04014396667480469
1667255161941836500,1.26783642578125,0.11954464763402939,-0.02161407470703125,-0.09539079666137695
1667255161946795000,1.272794921875,-0.0935063362121582,-0.13756704330444336,-0.1979842185974121
1667255161951753700,1.277753662109375,-0.33588406443595886,-0.22231769561767578,-0.2498764991760254
1667255161956712200,1.282712158203125,-0.48192745447158813,-0.23303699493408203,-0.3037400245666504
1667255161961670700,1.287670654296875,-0.5291656255722046,-0.20453643798828125,-0.3989400863647461
1667255161966629000,1.292629150390625,-0.462871789932251,-0.1632242202758789,-0.4733123779296875
1667255161971587800,1.297587890625,-0.35173216462135315,-0.1485586166381836,-0.445803165435791
1667255161976546300,1.30254638671875,-0.19482874870300293,-0.17838048934936523,-0.3310427665710449
1667255161981504800,1.3075048828125,-0.05536862462759018,-0.24295425415039062,-0.27245426177978516
1667255161986463200,1.312463134765625,0.04169502109289169,-0.32293128967285156,-0.2366175651550293
1667255161991422000,1.317421875,0.06654990464448929,-0.397860050201416,-0.23432159423828125
1667255161996380400,1.32238037109375,0.03305412083864212,-0.461517333984375,-0.24425792694091797
1667255162001339000,1.3273388671875,-0.036791831254959106,-0.5103788375854492,-0.17218494415283203
1667255162006297300,1.33229736328125,-0.08116669952869415,-0.4982261657714844,-0.0992279052734375
1667255162011256000,1.337256103515625,-0.05973520874977112,-0.412811279296875,-0.010716915130615234
1667255162016214500,1.342214599609375,-0.035060614347457886,-0.33236169815063477,0.09910392761230469
1667255162021173000,1.347173095703125,0.055378369987010956,-0.2926645278930664,0.20064544677734375
1667255162026131500,1.35213134765625,0.21555036306381226,-0.31114673614501953,0.29633188247680664
1667255162031090000,1.35708984375,0.30813780426979065,-0.41315174102783203,0.2732372283935547
1667255162036048600,1.362048583984375,0.39759591221809387,-0.558598518371582,0.183135986328125
1667255162041007000,1.367007080078125,0.49382779002189636,-0.6731858253479004,0.08433961868286133
1667255162045965600,1.371965576171875,0.49446776509284973,-0.8006525039672852,-0.060268402099609375
1667255162050924000,1.376924072265625,0.4421475827693939,-0.9204220771789551,-0.22805404663085938
1667255162055882800,1.3818828125,0.3795488774776459,-0.9956798553466797,-0.4212913513183594
1667255162060841200,1.38684130859375,0.23286402225494385,-0.9676327705383301,-0.5636796951293945
1667255162065799700,1.391799560546875,0.04997602105140686,-0.8763985633850098,-0.6472311019897461
1667255162070758100,1.396758056640625,-0.12058383226394653,-0.8113360404968262,-0.7686824798583984
1667255162075716600,1.401716552734375,-0.2504287660121918,-0.756615161895752,-0.8662123680114746
1667255162080675300,1.40667529296875,-0.28803351521492004,-0.7581071853637695,-0.9581317901611328
1667255162085633800,1.4116337890625,-0.20519724488258362,-0.8207550048828125,-1.050938606262207
1667255162090592300,1.41659228515625,0.012884244322776794,-0.910247802734375,-1.098933219909668
1667255162095550700,1.42155078125,0.2719469666481018,-0.9882097244262695,-1.0872597694396973
1667255162100509400,1.426509521484375,0.5176725387573242,-1.0196242332458496,-1.0108795166015625
1667255162105468000,1.431468017578125,0.7085662484169006,-0.9725031852722168,-0.8784098625183105
1667255162110426400,1.43642626953125,0.7961965799331665,-0.8545708656311035,-0.6944832801818848
1667255162115384800,1.441384765625,0.7611144781112671,-0.7032923698425293,-0.5472345352172852
1667255162120343600,1.446343505859375,0.629219651222229,-0.5424919128417969,-0.44618797302246094
1667255162125302000,1.451302001953125,0.46913212537765503,-0.3419780731201172,-0.3771052360534668
1667255162130260500,1.456260498046875,0.2620052993297577,-0.1414804458618164,-0.15117120742797852
1667255162135219000,1.461218994140625,0.039317987859249115,0.06655216217041016,0.10769891738891602
1667255162140177700,1.466177734375,-0.11846469342708588,0.26865673065185547,0.2940378189086914
1667255162145136000,1.47113623046875,-0.24302375316619873,0.4600405693054199,0.43233537673950195
1667255162150094600,1.476094482421875,-0.36401131749153137,0.6204419136047363,0.5686006546020508
1667255162155053000,1.481052978515625,-0.4411623775959015,0.7429533004760742,0.7398471832275391
1667255162160011800,1.48601171875,-0.4646725356578827,0.8669872283935547,0.8983783721923828
1667255162164970200,1.49097021484375,-0.45866629481315613,0.9810595512390137,1.0914711952209473
1667255162169928700,1.4959287109375,-0.4045742452144623,1.0113110542297363,1.3212370872497559
1667255162174887200,1.50088720703125,-0.3653866648674011,0.9547634124755859,1.5393471717834473
1667255162179846000,1.505845947265625,-0.3181050717830658,0.8827590942382812,1.6542868614196777
1667255162184804400,1.510804443359375,-0.30667591094970703,0.8014707565307617,1.5693817138671875
1667255162189762800,1.5157626953125,-0.28849369287490845,0.7462172508239746,1.3070259094238281
1667255162194721300,1.52072119140625,-0.31815099716186523,0.691497802734375,0.9622306823730469
1667255162199680000,1.525679931640625,-0.3967847228050232,0.6663799285888672,0.674285888671875
1667255162204638500,1.530638427734375,-0.5328587889671326,0.6556010246276855,0.46657705307006836
1667255162209597000,1.535596923828125,-0.6595913171768188,0.5996694564819336,0.27432775497436523
1667255162214555400,1.540555419921875,-0.7282412052154541,0.4976615905761719,0.08551836013793945
1667255162219513900,1.545513916015625,-0.7256897687911987,0.3867950439453125,-0.07717275619506836
1667255162224472600,1.55047265625,-0.6615135073661804,0.3031764030456543,-0.2604994773864746
1667255162229431000,1.55543115234375,-0.5202471017837524,0.2294607162475586,-0.42552947998046875
1667255162234389500,1.560389404296875,-0.34389567375183105,0.16267824172973633,-0.6145939826965332
1667255162239348000,1.565347900390625,-0.16031545400619507,0.1186833381652832,-0.7873682975769043
1667255162244306700,1.570306640625,-0.01881229877471924,0.07365894317626953,-0.8771562576293945
1667255162249265200,1.57526513671875,0.0906875729560852,0.06565523147583008,-0.9460973739624023
1667255162254223600,1.5802236328125,0.1473602056503296,0.0789785385131836,-1.0001111030578613
1667255162259182000,1.58518212890625,0.19195687770843506,0.12661123275756836,-1.0701932907104492
1667255162264140800,1.590140869140625,0.287544310092926,0.11893272399902344,-1.1503043174743652
1667255162269099300,1.595099365234375,0.38485294580459595,0.061944007873535156,-1.1496505737304688
1667255162274057700,1.6000576171875,0.46760648488998413,-0.000095367431640625,-1.072094440460205
1667255162279016200,1.60501611328125,0.6626718640327454,-0.04677629470825195,-1.00274658203125
1667255162283975000,1.609974853515625,0.8255767822265625,-0.08771896362304688,-0.9523754119873047
1667255162288933400,1.614933349609375,0.9518646001815796,-0.08147192001342773,-0.8897080421447754
1667255162293891800,1.619891845703125,1.0073566436767578,-0.07152843475341797,-0.8096647262573242
1667255162298850300,1.624850341796875,1.0080300569534302,-0.12361812591552734,-0.82440185546875
1667255162303809000,1.62980908203125,0.9572213292121887,-0.20750188827514648,-0.9494228363037109
1667255162308767500,1.634767578125,0.8741481304168701,-0.28672266006469727,-1.101489543914795
1667255162313726000,1.639725830078125,0.8129276037216187,-0.3812131881713867,-1.2546114921569824
1667255162318684400,1.644684326171875,0.7431139945983887,-0.44651079177856445,-1.383955955505371
1667255162323643100,1.64964306640625,0.6857926845550537,-0.47196531295776367,-1.4942851066589355
1667255162328601600,1.6546015625,0.6132820844650269,-0.5173244476318359,-1.506849765777588
1667255162333560000,1.65956005859375,0.5520616769790649,-0.5906128883361816,-1.447157382965088
1667255162338518500,1.6645185546875,0.4621603786945343,-0.6997189521789551,-1.3848929405212402
1667255162343477200,1.669477294921875,0.3956485688686371,-0.7439227104187012,-1.31441068649292
1667255162348435700,1.674435791015625,0.35173341631889343,-0.6661086082458496,-1.221360206604004
1667255162353394200,1.679394287109375,0.4244147539138794,-0.513394832611084,-1.0434517860412598
1667255162358352600,1.6843525390625,0.5100749135017395,-0.3389244079589844,-0.7517900466918945
1667255162363311000,1.68931103515625,0.555064857006073,-0.14917898178100586,-0.3998732566833496
1667255162368269800,1.694269775390625,0.5114818811416626,-0.03292655944824219,-0.021981239318847656
1667255162373228300,1.699228271484375,0.36429423093795776,0.033165931701660156,0.3419961929321289
1667255162378186800,1.704186767578125,0.20538178086280823,0.0247344970703125,0.6771988868713379
1667255162383145200,1.709145263671875,0.0868636965751648,-0.09780406951904297,1.0365543365478516
1667255162388104000,1.71410400390625,-0.05378305912017822,-0.3103327751159668,1.2994608879089355
1667255162393062400,1.7190625,-0.21553385257720947,-0.4846763610839844,1.4503049850463867
1667255162398020900,1.724020751953125,-0.3850933909416199,-0.5005326271057129,1.5657548904418945
1667255162402979300,1.728979248046875,-0.5763275027275085,-0.37292909622192383,1.7093267440795898
1667255162407938000,1.73393798828125,-0.7348636984825134,-0.19444561004638672,1.835824966430664
1667255162412896500,1.738896484375,-0.7788537740707397,0.0034575462341308594,1.9323821067810059
1667255162417855000,1.74385498046875,-0.7696226835250854,0.20133304595947266,2.0219831466674805
1667255162422813400,1.7488134765625,-0.7041414976119995,0.3522934913635254,2.162175178527832
1667255162427772200,1.753772216796875,-0.5790401101112366,0.4466385841369629,2.332763671875
1667255162432730600,1.758730712890625,-0.42558175325393677,0.4713907241821289,2.419076919555664
1667255162437689000,1.763689208984375,-0.28779321908950806,0.41152524948120117,2.4115042686462402
1667255162442647600,1.7686474609375,-0.22165906429290771,0.32023096084594727,2.3146095275878906
1667255162447606300,1.773606201171875,-0.20786261558532715,0.20868492126464844,2.135439872741699
1667255162452564700,1.778564697265625,-0.3424527645111084,0.058107852935791016,1.937258243560791
1667255162457523200,1.783523193359375,-0.5944421291351318,-0.11434507369995117,1.780721664428711
1667255162462481700,1.788481689453125,-0.8317379951477051,-0.2914557456970215,1.6510167121887207
1667255162467440400,1.7934404296875,-0.9881769418716431,-0.46088218688964844,1.5155415534973145
1667255162472398800,1.79839892578125,-1.0513629913330078,-0.5769834518432617,1.4313549995422363
1667255162477357300,1.803357421875,-0.9745339751243591,-0.5896377563476562,1.4018139839172363
1667255162482315800,1.808315673828125,-0.7961698770523071,-0.5315232276916504,1.4961795806884766
1667255162487274500,1.8132744140625,-0.6083769798278809,-0.44498729705810547,1.647695541381836
1667255162492233000,1.81823291015625,-0.4329341650009155,-0.35569143295288086,1.8364133834838867
1667255162497191400,1.82319140625,-0.25838685035705566,-0.2199254035949707,1.9695277214050293
1667255162502150000,1.82814990234375,-0.18080151081085205,-0.11895084381103516,1.9802870750427246
1667255162507108600,1.833108642578125,-0.24160784482955933,-0.08483457565307617,1.926243782043457
1667255162512067000,1.838067138671875,-0.34228259325027466,-0.03643369674682617,1.8913121223449707
1667255162517025500,1.843025634765625,-0.4670543670654297,0.055698394775390625,1.8865537643432617
1667255162521984000,1.84798388671875,-0.5504938960075378,0.11727142333984375,1.8500127792358398
1667255162526942700,1.852942626953125,-0.5251381993293762,0.16980934143066406,1.7030034065246582
1667255162531901200,1.857901123046875,-0.4619479775428772,0.14804458618164062,1.4800686836242676
1667255162536859600,1.862859619140625,-0.3674839735031128,0.13014745712280273,1.1797590255737305
1667255162541818000,1.867818115234375,-0.22055679559707642,0.16889286041259766,0.8771791458129883
1667255162546776800,1.87277685546875,-0.12743616104125977,0.22941303253173828,0.5867977142333984
1667255162551735300,1.8777353515625,-0.0031578540802001953,0.3221769332885742,0.37328672409057617
1667255162556693800,1.88269384765625,0.05944204330444336,0.4254946708679199,0.17817115783691406
1667255162561652200,1.88765234375,0.039500296115875244,0.4344658851623535,-0.04759645462036133
1667255162566611000,1.89261083984375,0.046174705028533936,0.36400747299194336,-0.26366662979125977
1667255162571569400,1.8975693359375,0.10584920644760132,0.16363096237182617,-0.5363245010375977
1667255162576528000,1.90252783203125,0.14586955308914185,-0.10599422454833984,-0.8159775733947754
1667255162581486300,1.907486328125,0.14882966876029968,-0.3437538146972656,-1.1259875297546387
1667255162586444800,1.91244482421875,0.1499260663986206,-0.6005635261535645,-1.419036865234375
1667255162591403500,1.917403564453125,0.1447288990020752,-0.8092560768127441,-1.6513290405273438
1667255162596362000,1.922362060546875,0.18767642974853516,-0.9803686141967773,-1.8185710906982422
1667255162601320400,1.927320556640625,0.2641267776489258,-1.0754814147949219,-1.9439172744750977
1667255162606279000,1.93227880859375,0.3560422658920288,-1.0947694778442383,-2.009549617767334
1667255162611237600,1.937237548828125,0.45606866478919983,-1.0731353759765625,-2.010697841644287
1667255162616196000,1.942196044921875,0.5663158893585205,-1.0608887672424316,-1.9330754280090332
1667255162621154600,1.947154541015625,0.6840128898620605,-1.0855450630187988,-1.8232874870300293
1667255162626113000,1.952113037109375,0.8183883428573608,-1.0850005149841309,-1.678905963897705
1667255162631071700,1.95707177734375,0.89362633228302,-1.0283751487731934,-1.455674648284912
1667255162636030200,1.9620302734375,0.9456943273544312,-0.9053702354431152,-1.1390581130981445
1667255162640988700,1.96698876953125,0.9453558921813965,-0.7560439109802246,-0.7632932662963867
1667255162645947100,1.971947021484375,0.876162588596344,-0.6359124183654785,-0.4066777229309082
1667255162650905900,1.97690576171875,0.7451097965240479,-0.5153317451477051,-0.13216447830200195
1667255162655864300,1.9818642578125,0.5377217531204224,-0.4041409492492676,0.10367298126220703
1667255162660822800,1.98682275390625,0.3019298315048218,-0.31946897506713867,0.3777337074279785
1667255162665781200,1.99178125,0.08796226978302002,-0.280611515045166,0.6447672843933105
1667255162670740000,1.996739990234375,-0.022099316120147705,-0.16607284545898438,0.8859248161315918
1667255162675698400,2.001698486328125,-0.08120626211166382,0.010425090789794922,1.0585432052612305
1667255162680657000,2.006656982421875,-0.15959995985031128,0.20421266555786133,1.2214865684509277
1667255162685615400,2.011615478515625,-0.24245405197143555,0.4210219383239746,1.2900753021240234
1667255162690574000,2.016573974609375,-0.33667075634002686,0.5675778388977051,1.2907042503356934
1667255162695532500,2.021532470703125,-0.4052664041519165,0.5903644561767578,1.1850361824035645
1667255162700491000,2.026490966796875,-0.45895230770111084,0.5219383239746094,0.9563031196594238
1667255162705449500,2.031449462890625,-0.5854426622390747,0.3674750328063965,0.636650562286377
1667255162710408200,2.036408203125,-0.7002003192901611,0.18265008926391602,0.33179283142089844
1667255162715366700,2.04136669921875,-0.829369068145752,-0.024767398834228516,0.039913177490234375
1667255162720325000,2.0463251953125,-0.9579280614852905,-0.16388654708862305,-0.16028118133544922
1667255162725283600,2.05128369140625,-0.9944139719009399,-0.19314861297607422,-0.29387950897216797
1667255162730242300,2.0562421875,-0.95699143409729,-0.15931987762451172,-0.39548730850219727
1667255162735200800,2.06120068359375,-0.7982701063156128,-0.09582090377807617,-0.510505199432373
1667255162740159200,2.0661591796875,-0.5769739151000977,-0.013325214385986328,-0.6137542724609375
1667255162745117700,2.07111767578125,-0.3764045238494873,0.07376956939697266,-0.6870574951171875
1667255162750076400,2.076076416015625,-0.20440232753753662,0.16549158096313477,-0.7290635108947754
1667255162755035000,2.081034912109375,-0.05731797218322754,0.24270200729370117,-0.7658987045288086
1667255162759993300,2.085993408203125,0.1086844801902771,0.28261661529541016,-0.7221217155456543
1667255162764951800,2.090951904296875,0.27866148948669434,0.3628382682800293,-0.736234188079834
1667255162769910500,2.09591064453125,0.45419591665267944,0.42356061935424805,-0.7758030891418457
1667255162774869000,2.100868896484375,0.6139786243438721,0.42190122604370117,-0.7978367805480957
1667255162779827500,2.105827392578125,0.7629117965698242,0.3759918212890625,-0.7738132476806641
1667255162784786000,2.110785888671875,0.9126617908477783,0.303957462310791,-0.7887659072875977
1667255162789744600,2.11574462890625,0.9912649393081665,0.25127267837524414,-0.8128695487976074
1667255162794703000,2.120703125,0.9779396057128906,0.25839757919311523,-0.8317780494689941
1667255162799661600,2.12566162109375,0.8842657208442688,0.27619171142578125,-0.8407349586486816
1667255162804620300,2.130620361328125,0.7179046869277954,0.2853579521179199,-0.8755049705505371
1667255162809578800,2.135578857421875,0.518899142742157,0.2777280807495117,-0.9363102912902832
1667255162814537200,2.140537109375,0.3150889277458191,0.20459318161010742,-0.9971747398376465
1667255162819495700,2.14549560546875,0.19971853494644165,0.13450288772583008,-1.0598487854003906
1667255162824454400,2.150454345703125,0.10983681678771973,0.08682727813720703,-1.119964599609375
1667255162829412900,2.155412841796875,0.006942152976989746,0.15190458297729492,-1.1008038520812988
1667255162834371300,2.160371337890625,-0.08170938491821289,0.2849259376525879,-1.053487777709961
1667255162839329800,2.165329833984375,-0.1753774881362915,0.4138522148132324,-1.0339174270629883
1667255162844288500,2.17028857421875,-0.2367638349533081,0.48259592056274414,-1.0396122932434082
1667255162849247000,2.1752470703125,-0.3330385684967041,0.48320817947387695,-1.0456032752990723
1667255162854205400,2.180205322265625,-0.37722134590148926,0.45886993408203125,-0.9742064476013184
1667255162859164000,2.185163818359375,-0.3112372159957886,0.38199663162231445,-0.8383889198303223
1667255162864122600,2.19012255859375,-0.13389939069747925,0.26572751998901367,-0.69305419921875
1667255162869081000,2.1950810546875,0.1384599804878235,0.18885040283203125,-0.6026768684387207
1667255162874039600,2.20003955078125,0.41316932439804077,0.14773130416870117,-0.5863537788391113
1667255162878998000,2.204998046875,0.5675426721572876,0.1471419334411621,-0.5782990455627441
1667255162883956700,2.209956787109375,0.5965607166290283,0.15950536727905273,-0.5711989402770996
1667255162888915200,2.214915283203125,0.4999063014984131,0.1847071647644043,-0.5851621627807617
1667255162893873700,2.219873779296875,0.32590657472610474,0.11645984649658203,-0.5604000091552734
1667255162898832100,2.22483203125,0.133023202419281,-0.061705589294433594,-0.5925850868225098
1667255162903790800,2.229790771484375,0.0020571351051330566,-0.2835359573364258,-0.637883186340332
1667255162908749300,2.234749267578125,-0.04600554704666138,-0.5102362632751465,-0.6718063354492188
1667255162913707800,2.239707763671875,0.019424498081207275,-0.6912198066711426,-0.680579662322998
1667255162918666200,2.244666259765625,0.19174230098724365,-0.7797837257385254,-0.6550302505493164
1667255162923625000,2.249625,0.36883091926574707,-0.8560142517089844,-0.5786876678466797
1667255162928583400,2.25458349609375,0.4384363889694214,-0.8221917152404785,-0.5016312599182129
1667255162933542000,2.2595419921875,0.37713438272476196,-0.7241721153259277,-0.3984689712524414
1667255162938500400,2.264500244140625,0.20412540435791016,-0.5861587524414062,-0.3142671585083008
1667255162943459000,2.269458984375,-0.06613194942474365,-0.4121980667114258,-0.1719989776611328
1667255162948417500,2.27441748046875,-0.3022109866142273,-0.28146839141845703,0.03467273712158203
1667255162953376000,2.2793759765625,-0.42606407403945923,-0.15596246719360352,0.1925821304321289
1667255162958334500,2.28433447265625,-0.428524374961853,-0.06682920455932617,0.2995586395263672
1667255162963293200,2.289293212890625,-0.33643442392349243,-0.08552026748657227,0.3794279098510742
1667255162968251600,2.294251708984375,-0.2091781497001648,-0.18070125579833984,0.4464116096496582
1667255162973210000,2.299210205078125,-0.022484898567199707,-0.23175907135009766,0.5411787033081055
1667255162978168600,2.30416845703125,0.1472190022468567,-0.18422889709472656,0.6591510772705078
1667255162983127300,2.309127197265625,0.30379152297973633,-0.07562446594238281,0.7252521514892578
1667255162988085800,2.314085693359375,0.38340651988983154,0.04028177261352539,0.740605354309082
1667255162993044200,2.319044189453125,0.35509687662124634,0.14323043823242188,0.739865779876709
1667255162998002700,2.324002685546875,0.21090924739837646,0.2545757293701172,0.7805824279785156
1667255163002961400,2.32896142578125,0.027680635452270508,0.37984132766723633,0.876305103302002
1667255163007919900,2.333919921875,-0.15140366554260254,0.4112377166748047,0.9568362236022949
1667255163012878300,2.33887841796875,-0.2750491499900818,0.3622164726257324,0.9444584846496582
1667255163017836800,2.3438369140625,-0.31965893507003784,0.2582712173461914,0.8701000213623047
1667255163022795500,2.34879541015625,-0.257286012172699,0.08098983764648438,0.7427158355712891
1667255163027754000,2.35375390625,-0.14595890045166016,-0.07826423645019531,0.5630078315734863
1667255163032712400,2.35871240234375,-0.06494057178497314,-0.19896745681762695,0.4071497917175293
1667255163037671000,2.3636708984375,-0.02853560447692871,-0.23097848892211914,0.3371000289916992
1667255163042629600,2.368629638671875,-0.08640068769454956,-0.21024608612060547,0.3276200294494629
1667255163047588000,2.373588134765625,-0.16393393278121948,-0.12729167938232422,0.25682973861694336
1667255163052546600,2.378546630859375,-0.2343408465385437,-0.08132076263427734,0.1929640769958496
1667255163057505000,2.383505126953125,-0.254127562046051,-0.0769500732421875,0.13837957382202148
1667255163062463700,2.388463623046875,-0.2345978021621704,-0.09966278076171875,0.09423971176147461
1667255163067422200,2.393422119140625,-0.20508521795272827,-0.10520744323730469,0.09401464462280273
1667255163072380700,2.398380615234375,-0.20418506860733032,-0.06493473052978516,0.10068082809448242
1667255163077339100,2.403339111328125,-0.19676929712295532,-0.013522624969482422,0.09751224517822266
1667255163082297900,2.4082978515625,-0.17298758029937744,0.05137062072753906,0.1251850128173828
1667255163087256300,2.41325634765625,-0.172091543674469,0.12475347518920898,0.1934223175048828
1667255163092214800,2.41821484375,-0.15820860862731934,0.22789335250854492,0.3047661781311035
1667255163097173500,2.423173583984375,-0.14232587814331055,0.3282904624938965,0.39127206802368164
1667255163102132000,2.428132080078125,-0.1175355315208435,0.4031982421875,0.47452211380004883
1667255163107090400,2.43309033203125,-0.09981644153594971,0.48131752014160156,0.5461182594299316
1667255163112049000,2.438048828125,-0.07405859231948853,0.5674419403076172,0.6215262413024902
1667255163117007600,2.443007568359375,-0.06975966691970825,0.6698055267333984,0.6458301544189453
1667255163121966000,2.447966064453125,-0.08766013383865356,0.7537174224853516,0.5581645965576172
1667255163126924500,2.452924560546875,-0.17133688926696777,0.7476668357849121,0.47199106216430664
1667255163131883000,2.457883056640625,-0.2791255712509155,0.6424179077148438,0.4074068069458008
1667255163136841700,2.462841796875,-0.3502119183540344,0.543363094329834,0.32480669021606445
1667255163141800200,2.46780029296875,-0.3595823645591736,0.4469475746154785,0.2576155662536621
1667255163146758700,2.472758544921875,-0.29681140184402466,0.37691402435302734,0.1581716537475586
1667255163151717000,2.477717041015625,-0.15368521213531494,0.3068552017211914,0.07798910140991211
1667255163156675800,2.48267578125,-0.0021455883979797363,0.19502639770507812,-0.022443771362304688
1667255163161634300,2.48763427734375,0.11599159240722656,-0.000019550323486328125,-0.1875777244567871
1667255163166592800,2.4925927734375,0.1402021050453186,-0.2324066162109375,-0.386594295501709
1667255163171551200,2.49755126953125,0.10584741830825806,-0.4230518341064453,-0.5622744560241699
1667255163176510000,2.502510009765625,0.03403639793395996,-0.4943866729736328,-0.6381864547729492
1667255163181468400,2.507468505859375,-0.014787077903747559,-0.4693622589111328,-0.682466983795166
1667255163186427000,2.512427001953125,-0.06374633312225342,-0.41617727279663086,-0.6939549446105957
1667255163191385600,2.517385498046875,-0.10113692283630371,-0.3324422836303711,-0.6487956047058105
1667255163196344000,2.522343994140625,-0.07918626070022583,-0.2939295768737793,-0.5411219596862793
1667255163201302500,2.527302490234375,0.009855508804321289,-0.2230372428894043,-0.37307167053222656
1667255163206261000,2.532260986328125,0.14563697576522827,-0.12736988067626953,-0.1472339630126953
1667255163211219700,2.5372197265625,0.2982481122016907,-0.037145137786865234,0.07226324081420898
1667255163216178200,2.54217822265625,0.42726588249206543,0.0532536506652832,0.25150251388549805
1667255163221136600,2.54713671875,0.46852418780326843,0.10930490493774414,0.35295677185058594
1667255163226095000,2.55209521484375,0.4353475272655487,0.043415069580078125,0.447329044342041
1667255163231053800,2.5570537109375,0.3574332594871521,-0.029640674591064453,0.5573344230651855
1667255163236012300,2.56201220703125,0.2702130079269409,-0.11938858032226562,0.5927376747131348
1667255163240970800,2.566970703125,0.2237175703048706,-0.21999645233154297,0.5946769714355469
1667255163245929200,2.57192919921875,0.16220414638519287,-0.31482791900634766,0.6013860702514648
1667255163250888000,2.576887939453125,0.10632240772247314,-0.40263795852661133,0.5722613334655762
1667255163255846400,2.581846435546875,0.12057328224182129,-0.47376298904418945,0.48351192474365234
1667255163260804900,2.586804931640625,0.19352811574935913,-0.5078458786010742,0.3186073303222656
1667255163265763300,2.591763427734375,0.2585407495498657,-0.48603200912475586,0.1230783462524414
1667255163270722000,2.59672216796875,0.25205403566360474,-0.46932077407836914,-0.018498897552490234
1667255163275680500,2.601680419921875,0.19550085067749023,-0.5167555809020996,-0.1471109390258789
1667255163280639000,2.606638916015625,0.10712540149688721,-0.6014328002929688,-0.2786107063293457
1667255163285597400,2.611597412109375,0.06246143579483032,-0.7333178520202637,-0.44795656204223633
1667255163290556200,2.61655615234375,0.07029104232788086,-0.8726086616516113,-0.650449275970459
1667255163295514600,2.6215146484375,0.08513760566711426,-1.0011835098266602,-0.7722406387329102
1667255163300473000,2.62647314453125,0.13446998596191406,-1.0718441009521484,-0.8042807579040527
1667255163305431600,2.631431640625,0.20059174299240112,-1.0010652542114258,-0.7363157272338867
1667255163310390300,2.636390380859375,0.24835968017578125,-0.814002513885498,-0.6601567268371582
1667255163315348700,2.6413486328125,0.25371795892715454,-0.5806312561035156,-0.5743570327758789
1667255163320307200,2.64630712890625,0.22597599029541016,-0.3655815124511719,-0.4585237503051758
1667255163325265700,2.651265625,0.1776987910270691,-0.20564651489257812,-0.36128902435302734
1667255163330224400,2.656224365234375,0.09987741708755493,-0.10871648788452148,-0.26103687286376953
1667255163335182800,2.661182861328125,0.05219382047653198,-0.05884885787963867,-0.19810009002685547
1667255163340141300,2.666141357421875,0.08055084943771362,-0.031702518463134766,-0.23413419723510742
1667255163345099800,2.671099853515625,0.137891948223114,0.01458120346069336,-0.3210420608520508
1667255163350058500,2.67605859375,0.16813546419143677,0.07628059387207031,-0.34212350845336914
1667255163355017000,2.681016845703125,0.15472859144210815,0.08657503128051758,-0.2715287208557129
1667255163359975400,2.685975341796875,0.11325961351394653,0.09191751480102539,-0.156005859375
1667255163364934100,2.69093408203125,0.07887804508209229,0.07454633712768555,-0.11228227615356445
1667255163369892600,2.695892578125,0.1039419174194336,0.0466766357421875,-0.11874771118164062
1667255163374851000,2.70085107421875,0.13064968585968018,0.0359044075012207,-0.12430047988891602
1667255163379809500,2.7058095703125,0.1017724871635437,0.09081077575683594,-0.07570505142211914
1667255163384768300,2.710768310546875,0.08786255121231079,0.2023615837097168,0.051731109619140625
1667255163389726700,2.715726806640625,0.06515860557556152,0.33188724517822266,0.16273212432861328
1667255163394685200,2.720685302734375,0.009991288185119629,0.432891845703125,0.2622652053833008
1667255163399643600,2.7256435546875,-0.08458757400512695,0.4725046157836914,0.2731471061706543
1667255163404602400,2.730602294921875,-0.2515723705291748,0.45483970642089844,0.23400592803955078
1667255163409560800,2.735560791015625,-0.40731823444366455,0.4290018081665039,0.2069697380065918
1667255163414519300,2.740519287109375,-0.5437883138656616,0.4092698097229004,0.21091699600219727
1667255163419478000,2.74547802734375,-0.6043860912322998,0.4274883270263672,0.14961719512939453
1667255163424436500,2.7504365234375,-0.5699561834335327,0.4523582458496094,0.13641071319580078
1667255163429395000,2.75539501953125,-0.44292521476745605,0.4635319709777832,0.0760335922241211
1667255163434353400,2.760353515625,-0.28843140602111816,0.48005056381225586,0.016335010528564453
1667255163439312100,2.76531201171875,-0.11776173114776611,0.46274471282958984,-0.03806495666503906
1667255163444270600,2.7702705078125,0.03573572635650635,0.45696401596069336,-0.07652044296264648
1667255163449229000,2.77522900390625,0.16176319122314453,0.42721033096313477,-0.08274555206298828
1667255163454187800,2.780187744140625,0.26932358741760254,0.38462018966674805,-0.1296062469482422
1667255163459146200,2.785146240234375,0.2750321626663208,0.3912506103515625,-0.21694231033325195
1667255163464104700,2.790104736328125,0.17715179920196533,0.3673591613769531,-0.26492786407470703
1667255163469063200,2.795063232421875,0.05220341682434082,0.3357987403869629,-0.19904041290283203
1667255163474022000,2.80002197265625,-0.02432537078857422,0.30375099182128906,-0.16250276565551758
1667255163478980400,2.80498046875,0.015212655067443848,0.2784895896911621,-0.1290755271911621
1667255163483938800,2.809938720703125,0.09138333797454834,0.2728719711303711,-0.0487666130065918
1667255163488897300,2.814897216796875,0.15619230270385742,0.291287899017334,0.04738473892211914
1667255163493856000,2.81985595703125,0.1380171775817871,0.2810349464416504,0.18680191040039062
1667255163498814500,2.824814453125,0.021715521812438965,0.24219608306884766,0.2505965232849121
1667255163503773000,2.82977294921875,-0.15668296813964844,0.18561506271362305,0.25721120834350586
1667255163508731400,2.8347314453125,-0.2902780771255493,0.18260812759399414,0.2972383499145508
1667255163513690000,2.839690185546875,-0.2956644296646118,0.25273656845092773,0.31711912155151367
1667255163518648600,2.844648681640625,-0.27715635299682617,0.34902238845825195,0.3740882873535156
1667255163523607000,2.84960693359375,-0.2694542407989502,0.4711484909057617,0.40268802642822266
1667255163528565500,2.8545654296875,-0.2655200958251953,0.5701074600219727,0.4009370803833008
1667255163533524200,2.859524169921875,-0.24759364128112793,0.5736112594604492,0.42378711700439453
1667255163538482700,2.864482666015625,-0.21605956554412842,0.47424745559692383,0.43076038360595703
1667255163543441200,2.869441162109375,-0.2642529010772705,0.2861347198486328,0.3731846809387207
1667255163548399900,2.87439990234375,-0.2634165287017822,0.13482666015625,0.31891632080078125
1667255163553358300,2.8793583984375,-0.19393813610076904,0.029642105102539062,0.2534966468811035
1667255163558316800,2.88431689453125,-0.11798381805419922,-0.06397247314453125,0.19809246063232422
1667255163563275300,2.889275146484375,-0.031148433685302734,-0.17442893981933594,0.19151830673217773
1667255163568234000,2.89423388671875,0.12649846076965332,-0.3096904754638672,0.2377634048461914
1667255163573192400,2.8991923828125,0.11141777038574219,-0.35934877395629883,0.2939023971557617
1667255163578151000,2.90415087890625,0.07160317897796631,-0.23314571380615234,0.31040191650390625
1667255163583109400,2.909109375,-0.008623123168945312,-0.03154134750366211,0.384274959564209
1667255163588068000,2.914068115234375,-0.14906108379364014,0.14258861541748047,0.4844803810119629
1667255163593026600,2.919026611328125,-0.2933870553970337,0.18375873565673828,0.5516552925109863
1667255163597985000,2.923985107421875,-0.3374330997467041,0.11465024948120117,0.5169482231140137
1667255163602943700,2.92894384765625,-0.32245349884033203,0.007643699645996094,0.42949867248535156
1667255163607902200,2.933902099609375,-0.3022298812866211,-0.09518098831176758,0.30134057998657227
1667255163612860700,2.938860595703125,-0.25667083263397217,-0.14988040924072266,0.22170448303222656
1667255163617819100,2.943819091796875,-0.15868592262268066,-0.2171316146850586,0.14956998825073242
1667255163622777900,2.94877783203125,-0.06550741195678711,-0.28579139709472656,0.055979251861572266
1667255163627736300,2.953736328125,0.00801318883895874,-0.3638882637023926,-0.05319070816040039
1667255163632694800,2.95869482421875,0.04702693223953247,-0.3943023681640625,-0.14937973022460938
1667255163637653500,2.963653564453125,0.020519495010375977,-0.3764805793762207,-0.14209985733032227
1667255163642612000,2.968612060546875,-0.016655445098876953,-0.3597116470336914,-0.06142282485961914
1667255163647570400,2.9735703125,-0.03872281312942505,-0.3345632553100586,-0.010991573333740234
1667255163652529000,2.97852880859375,-0.04135018587112427,-0.3248133659362793,0.029701709747314453
1667255163657487600,2.983487548828125,-0.007155299186706543,-0.2993950843811035,0.05123281478881836
1667255163662446000,2.988446044921875,0.03712671995162964,-0.28675317764282227,0.0678868293762207
1667255163667404500,2.993404541015625,0.06715458631515503,-0.27240896224975586,0.08315515518188477
1667255163672363000,2.998363037109375,0.1269548535346985,-0.23276662826538086,0.14938831329345703
1667255163677321700,3.00332177734375,0.231370210647583,-0.16222095489501953,0.22948169708251953
1667255163682280200,3.0082802734375,0.3130394220352173,-0.10487222671508789,0.2685990333557129
1667255163687238700,3.01323876953125,0.3417820930480957,-0.052411556243896484,0.2849264144897461
1667255163692197000,3.018197021484375,0.32542985677719116,0.016393184661865234,0.3273935317993164
1667255163697155800,3.02315576171875,0.3118327856063843,0.09403276443481445,0.3318934440612793
1667255163702114300,3.0281142578125,0.31975674629211426,0.16726016998291016,0.31175661087036133
1667255163707072800,3.03307275390625,0.2779392600059509,0.2169952392578125,0.25652217864990234
1667255163712031500,3.038031494140625,0.13871079683303833,0.21967506408691406,0.23523521423339844
1667255163716990000,3.042989990234375,-0.037297725677490234,0.15073919296264648,0.18822908401489258
1667255163721948400,3.047948486328125,-0.20030111074447632,-0.014011859893798828,0.1249852180480957
1667255163726907000,3.052906982421875,-0.33266228437423706,-0.1879873275756836,-0.003506183624267578
1667255163731865600,3.057865478515625,-0.41895240545272827,-0.3245530128479004,-0.1341695785522461
1667255163736824000,3.062823974609375,-0.4148426055908203,-0.36216211318969727,-0.22199583053588867
1667255163741782500,3.067782470703125,-0.3081618547439575,-0.30042219161987305,-0.30518245697021484
1667255163746741200,3.0727412109375,-0.10582542419433594,-0.17609119415283203,-0.31078052520751953
1667255163751699700,3.07769970703125,0.1096576452255249,-0.06588029861450195,-0.17836332321166992
1667255163756658200,3.082658203125,0.28194481134414673,-0.05398082733154297,-0.05954694747924805
1667255163761616600,3.08761669921875,0.3618682622909546,-0.0812230110168457,-0.038687705993652344
1667255163766575400,3.092575439453125,0.3649275302886963,-0.15417098999023438,-0.10233116149902344
1667255163771533800,3.097533935546875,0.23750239610671997,-0.2379932403564453,-0.17403697967529297
1667255163776492300,3.1024921875,0.05786335468292236,-0.2579517364501953,-0.18853282928466797
1667255163781451000,3.107450927734375,-0.11624348163604736,-0.18989944458007812,-0.1757831573486328
1667255163786409500,3.112409423828125,-0.23550450801849365,-0.07388639450073242,-0.12994384765625
1667255163791368000,3.117367919921875,-0.25671637058258057,0.11324071884155273,-0.07957744598388672
1667255163796326400,3.122326416015625,-0.16791951656341553,0.2936592102050781,-0.06733226776123047
1667255163801285000,3.12728515625,-0.019788503646850586,0.47319555282592773,-0.07724857330322266
1667255163806243600,3.13224365234375,0.13411951065063477,0.6031155586242676,-0.07691526412963867
1667255163811202000,3.1372021484375,0.2281489372253418,0.6492881774902344,-0.07913017272949219
1667255163816160500,3.142160400390625,0.2218862771987915,0.6148099899291992,-0.08853864669799805
1667255163821119200,3.147119140625,0.17930132150650024,0.44017982482910156,-0.18734502792358398
1667255163826077700,3.15207763671875,0.09384214878082275,0.15424776077270508,-0.37291669845581055
1667255163831036200,3.1570361328125,0.05592834949493408,-0.15489721298217773,-0.5658111572265625
1667255163835995000,3.161994873046875,0.09578990936279297,-0.4463486671447754,-0.7214384078979492
1667255163840953300,3.166953369140625,0.17239773273468018,-0.7044839859008789,-0.8073811531066895
1667255163845911800,3.171911865234375,0.24171507358551025,-0.8726239204406738,-0.8099713325500488
1667255163850870300,3.176870361328125,0.2918013334274292,-0.9492225646972656,-0.7666058540344238
1667255163855829000,3.1818291015625,0.34764862060546875,-0.9210495948791504,-0.6476902961730957
1667255163860787500,3.186787353515625,0.3545471429824829,-0.8554902076721191,-0.5213971138000488
1667255163865746000,3.191745849609375,0.3165547847747803,-0.7327704429626465,-0.4149446487426758
1667255163870704600,3.19670458984375,0.2332082986831665,-0.5604734420776367,-0.28302955627441406
1667255163875663000,3.2016630859375,0.09716367721557617,-0.3237624168395996,-0.15398454666137695
1667255163880621600,3.20662158203125,-0.055047035217285156,-0.04595136642456055,0.021285057067871094
1667255163885580300,3.211580322265625,-0.2133883237838745,0.18322420120239258,0.23711204528808594
1667255163890538800,3.216538818359375,-0.2615065574645996,0.37318944931030273,0.46179723739624023
1667255163895497200,3.221497314453125,-0.18974649906158447,0.5061469078063965,0.6731643676757812
1667255163900455700,3.22645556640625,-0.07909822463989258,0.6036505699157715,0.8633151054382324
1667255163905414400,3.231414306640625,0.07623922824859619,0.662266731262207,0.9636473655700684
1667255163910372900,3.236372802734375,0.20473980903625488,0.6902804374694824,1.0131111145019531
1667255163915331300,3.241331298828125,0.2307807207107544,0.6712245941162109,0.9954371452331543
1667255163920289800,3.246289794921875,0.11284363269805908,0.6029391288757324,0.926668643951416
1667255163925248500,3.25124853515625,-0.0951606035232544,0.4988985061645508,0.8094444274902344
1667255163930207000,3.25620703125,-0.32887959480285645,0.34049558639526367,0.6510806083679199
1667255163935165400,3.26116552734375,-0.4624711275100708,0.1475849151611328,0.48691511154174805
1667255163940124000,3.2661240234375,-0.45051562786102295,-0.0810995101928711,0.26128292083740234
1667255163945082600,3.27108251953125,-0.2995976209640503,-0.2850804328918457,-0.024002552032470703
1667255163950041000,3.276041015625,-0.0832902193069458,-0.37377023696899414,-0.2836470603942871
1667255163954999600,3.28099951171875,0.10799121856689453,-0.3503303527832031,-0.41575050354003906
1667255163959958300,3.285958251953125,0.2180345058441162,-0.2181568145751953,-0.5051236152648926
1667255163964916700,3.290916748046875,0.26082277297973633,-0.11121892929077148,-0.5029177665710449
1667255163969875200,3.295875244140625,0.24861979484558105,-0.05185842514038086,-0.508145809173584
1667255163974834000,3.300833984375,0.2675747275352478,0.013806819915771484,-0.5813417434692383
1667255163979792400,3.30579248046875,0.3135734796524048,0.08345365524291992,-0.6735057830810547
1667255163984750800,3.310750732421875,0.31724488735198975,0.1498723030090332,-0.7726011276245117
1667255163989709300,3.315709228515625,0.24432051181793213,0.12753009796142578,-0.7811250686645508
1667255163994668000,3.32066796875,0.1449413299560547,0.0811929702758789,-0.769834041595459
1667255163999626500,3.32562646484375,0.036562323570251465,-0.027960777282714844,-0.797325611114502
1667255164004585000,3.3305849609375,-0.06243264675140381,-0.07718324661254883,-0.8444676399230957
1667255164009543400,3.33554345703125,-0.12299418449401855,-0.07891368865966797,-0.8233046531677246
1667255164014502100,3.340502197265625,-0.08773171901702881,-0.05037069320678711,-0.6891107559204102
1667255164019460600,3.345460693359375,-0.006625175476074219,0.011441707611083984,-0.46385812759399414
1667255164024419000,3.350419189453125,0.09809088706970215,0.10455989837646484,-0.2165241241455078
1667255164029377800,3.355377685546875,0.22768795490264893,0.21058893203735352,-0.018223285675048828
1667255164034336300,3.360336181640625,0.3556663990020752,0.3068428039550781,0.01841878890991211
1667255164039294700,3.365294677734375,0.4041048288345337,0.3922462463378906,-0.05806779861450195
1667255164044253400,3.37025341796875,0.33797168731689453,0.46923160552978516,-0.10792732238769531
1667255164049212000,3.3752119140625,0.13474023342132568,0.5578765869140625,-0.08363151550292969
1667255164054170400,3.38017041015625,-0.12687981128692627,0.587885856628418,-0.060131072998046875
1667255164059128800,3.38512890625,-0.296653151512146,0.5561714172363281,-0.0539393424987793
1667255164064087600,3.390087646484375,-0.39181506633758545,0.46942806243896484,-0.10794353485107422
1667255164069046000,3.3950458984375,-0.42815446853637695,0.2668914794921875,-0.2590494155883789
1667255164074004500,3.40000439453125,-0.38687002658843994,0.017525672912597656,-0.3989448547363281
1667255164078963200,3.404963134765625,-0.3083134889602661,-0.2399921417236328,-0.4331216812133789
1667255164083921700,3.409921630859375,-0.16989600658416748,-0.4485349655151367,-0.4526972770690918
1667255164088880000,3.414880126953125,0.019923686981201172,-0.6036605834960938,-0.4970107078552246
1667255164093838600,3.419838623046875,0.16982793807983398,-0.697606086730957,-0.4896540641784668
1667255164098797300,3.42479736328125,0.20607256889343262,-0.7533969879150391,-0.42499542236328125
1667255164103755800,3.429755859375,0.16960930824279785,-0.706110954284668,-0.3566732406616211
1667255164108714200,3.43471435546875,0.10899996757507324,-0.5981302261352539,-0.33206844329833984
1667255164113673000,3.4396728515625,0.055508971214294434,-0.444455623626709,-0.31835412979125977
1667255164118631400,3.44463134765625,0.0032640695571899414,-0.265927791595459,-0.24498701095581055
1667255164123590000,3.44958984375,-0.010782241821289062,-0.11513757705688477,-0.17266368865966797
1667255164128548400,3.45454833984375,0.04845404624938965,-0.041871070861816406,-0.12132072448730469
1667255164133507000,3.459507080078125,0.18235552310943604,-0.013585090637207031,-0.03846549987792969
1667255164138465500,3.464465576171875,0.3410506248474121,-0.060730934143066406,-0.045556068420410156
1667255164143424000,3.469424072265625,0.470306396484375,-0.18740558624267578,-0.06609010696411133
1667255164148382700,3.4743828125,0.5721896886825562,-0.35369300842285156,-0.11210346221923828
1667255164153341200,3.479341064453125,0.5955501198768616,-0.5270290374755859,-0.18258142471313477
1667255164158299600,3.484299560546875,0.5350348949432373,-0.6679883003234863,-0.33105039596557617
1667255164163258000,3.489258056640625,0.4214476943016052,-0.7503995895385742,-0.44811296463012695
1667255164168216800,3.494216796875,0.23460650444030762,-0.8089485168457031,-0.5282416343688965
1667255164173175300,3.49917529296875,0.05891823768615723,-0.8459486961364746,-0.551790714263916
1667255164178133800,3.5041337890625,-0.05163764953613281,-0.8366050720214844,-0.508479118347168
1667255164183092500,3.509092529296875,-0.08070087432861328,-0.7695102691650391,-0.4307212829589844
1667255164188051000,3.514051025390625,-0.036125779151916504,-0.6998162269592285,-0.3044271469116211
1667255164193009400,3.519009521484375,0.05985891819000244,-0.5920224189758301,-0.14774465560913086
1667255164197968000,3.5239677734375,0.18532264232635498,-0.47742319107055664,0.05110931396484375
1667255164202926600,3.528926513671875,0.29007625579833984,-0.3539543151855469,0.2612948417663574
1667255164207885000,3.533885009765625,0.3549143075942993,-0.2244710922241211,0.4879879951477051
1667255164212843500,3.538843505859375,0.41636741161346436,-0.0680551528930664,0.6828503608703613
1667255164217802200,3.54380224609375,0.37859177589416504,0.06861639022827148,0.7536330223083496
1667255164222760700,3.5487607421875,0.2330228090286255,0.15120887756347656,0.7486896514892578
1667255164227719200,3.55371923828125,0.022191524505615234,0.2312636375427246,0.6658835411071777
1667255164232678000,3.558677978515625,-0.284684419631958,0.24848413467407227,0.529177188873291
1667255164237636400,3.56363623046875,-0.582316517829895,0.22481822967529297,0.41367197036743164
1667255164242594800,3.5685947265625,-0.7792292833328247,0.19979381561279297,0.3820662498474121
1667255164247553300,3.57355322265625,-0.8317115306854248,0.150848388671875,0.38284969329833984
1667255164252512000,3.578511962890625,-0.6938196420669556,0.1269378662109375,0.35292911529541016
1667255164257470500,3.583470458984375,-0.37212491035461426,0.12445259094238281,0.2771458625793457
1667255164262429000,3.588428955078125,-0.012021899223327637,0.10080385208129883,0.2256612777709961
1667255164267387600,3.5933876953125,0.31217658519744873,0.01108694076538086,0.19016408920288086
1667255164272346000,3.59834619140625,0.5323964357376099,-0.04912519454956055,0.14555931091308594
1667255164277304600,3.6033046875,0.6946519613265991,-0.16182899475097656,-0.04823160171508789
1667255164282263300,3.60826318359375,0.7101775407791138,-0.2860560417175293,-0.2847275733947754
1667255164287221800,3.6132216796875,0.6178797483444214,-0.40404748916625977,-0.44361066818237305
1667255164292180200,3.61818017578125,0.48371756076812744,-0.44600820541381836,-0.5217881202697754
1667255164297138700,3.623138671875,0.4134308099746704,-0.5135536193847656,-0.6170654296875
1667255164302097400,3.628097412109375,0.4299736022949219,-0.6338496208190918,-0.7137980461120605
1667255164307055900,3.633055908203125,0.5955590009689331,-0.8407163619995117,-0.880986213684082
1667255164312014300,3.638014404296875,0.827640175819397,-1.0989818572998047,-1.0515155792236328
1667255164316972800,3.642972900390625,1.199316382408142,-1.2350921630859375,-1.180098533630371
1667255164321931500,3.647931640625,1.667588710784912,-1.3032851219177246,-1.239976406097412
1667255164326890000,3.652889892578125,2.0538763999938965,-1.4417572021484375,-1.2407374382019043
1667255164331848400,3.657848388671875,2.3704898357391357,-1.5676865577697754,-1.320202112197876
1667255164336807200,3.66280712890625,2.7272703647613525,-1.6608128547668457,-1.5033254623413086
1667255164341765600,3.667765625,2.878117322921753,-1.7849321365356445,-1.5288054943084717
1667255164346724000,3.67272412109375,3.067887783050537,-1.9630727767944336,-1.4585013389587402
1667255164351682800,3.677682861328125,3.2270002365112305,-2.456972122192383,-1.4349169731140137
1667255164356641300,3.682641357421875,3.6650359630584717,-3.101076126098633,-1.6311304569244385
1667255164361599700,3.687599853515625,3.7755231857299805,-3.8882017135620117,-2.068373441696167
1667255164366558500,3.692558349609375,3.84940242767334,-4.844424247741699,-2.807849168777466
1667255164371517000,3.697516845703125,3.5313806533813477,-5.53842830657959,-3.5727667808532715
1667255164376475400,3.702475341796875,3.030463695526123,-5.970423698425293,-4.22963285446167
1667255164381433900,3.707433837890625,2.6412553787231445,-6.646550178527832,-4.386907577514648
1667255164386392600,3.712392578125,2.2013425827026367,-7.171542644500732,-4.363373756408691
1667255164391351000,3.71735107421875,2.7978715896606445,-7.418794631958008,-4.871222496032715
1667255164396309500,3.7223095703125,2.795179843902588,-7.493777751922607,-5.057784080505371
1667255164401268200,3.727268310546875,2.6223044395446777,-7.5460309982299805,-5.14678955078125
1667255164406226700,3.732226806640625,2.4171998500823975,-7.570792198181152,-5.199194431304932
1667255164411185200,3.73718505859375,2.2950239181518555,-7.560913562774658,-5.2400078773498535
1667255164416143600,3.7421435546875,2.182962656021118,-7.5402960777282715,-5.2572736740112305
1667255164421102300,3.747102294921875,2.1420764923095703,-7.530465602874756,-5.259311676025391
1667255164426060800,3.752060791015625,2.121098279953003,-7.502728462219238,-5.281907558441162
1667255164431019300,3.757019287109375,2.161790370941162,-7.476226806640625,-5.277216911315918
1667255164435978000,3.76197802734375,2.229398250579834,-7.4402174949646,-5.285861968994141
1667255164440936400,3.7669365234375,2.3404695987701416,-7.395901679992676,-5.27915620803833
1667255164445895000,3.77189501953125,2.469635486602783,-7.3325581550598145,-5.264275550842285
1667255164450853400,3.776853271484375,2.6071763038635254,-7.2489705085754395,-5.255621433258057
1667255164455812000,3.78181201171875,2.739683151245117,-7.1822357177734375,-5.238812446594238
1667255164460770600,3.7867705078125,2.839409589767456,-7.114420413970947,-5.23893404006958
1667255164465729000,3.79172900390625,2.9313535690307617,-7.068188667297363,-5.22969388961792
1667255164470687700,3.796687744140625,2.9688522815704346,-7.0172319412231445,-5.225369930267334
1667255164475646200,3.801646240234375,2.8945770263671875,-6.9758687019348145,-5.24503755569458
1667255164480604700,3.806604736328125,2.7161338329315186,-6.9571404457092285,-5.2743096351623535
1667255164485563400,3.8115634765625,2.442321300506592,-6.972966194152832,-5.329777240753174
1667255164490521900,3.81652197265625,2.1536664962768555,-7.007707595825195,-5.380295753479004
1667255164495480300,3.821480224609375,1.9497699737548828,-7.027826309204102,-5.436582088470459
1667255164500439000,3.82643896484375,1.8856656551361084,-7.039297103881836,-5.441225528717041
1667255164505397500,3.8313974609375,1.985144853591919,-7.014559745788574,-5.437363147735596
1667255164510356000,3.83635595703125,2.216761350631714,-6.957280158996582,-5.416566371917725
1667255164515314400,3.841314453125,2.4868640899658203,-6.867401599884033,-5.408822059631348
1667255164520273200,3.846273193359375,2.7315824031829834,-6.7843780517578125,-5.379452705383301
1667255164525231600,3.851231689453125,2.8953657150268555,-6.711697578430176,-5.348858833312988
1667255164530190000,3.856190185546875,3.0109615325927734,-6.627809524536133,-5.320586204528809
1667255164535148800,3.861148681640625,3.151695728302002,-6.552946090698242,-5.294625759124756
1667255164540107300,3.866107177734375,3.426483392715454,-6.460739612579346,-5.250565052032471
1667255164545065700,3.871065673828125,3.8720180988311768,-6.308022499084473,-5.165661334991455
1667255164550024400,3.8760244140625,4.4864821434021,-6.110236167907715,-5.025457859039307
1667255164554983000,3.88098291015625,5.236863136291504,-5.854169845581055,-4.873851776123047
1667255164559941400,3.88594140625,6.086579322814941,-5.557550430297852,-4.667440414428711
1667255164564899800,3.89089990234375,7.029130458831787,-5.210615634918213,-4.465398788452148
1667255164569858600,3.895858642578125,8.042947769165039,-4.830991744995117,-4.221595764160156
1667255164574817000,3.900817138671875,9.05682373046875,-4.4351043701171875,-3.9996931552886963
1667255164579775500,3.905775390625,9.977476119995117,-4.087062835693359,-3.8023228645324707
1667255164584734200,3.910734130859375,10.62182903289795,-3.780364751815796,-3.6297874450683594
1667255164589692700,3.915692626953125,10.862496376037598,-3.5395119190216064,-3.588918685913086
1667255164594651100,3.920651123046875,10.51698112487793,-3.399761199951172,-3.6265838146209717
1667255164599609900,3.92560986328125,9.420851707458496,-3.4668943881988525,-3.810946464538574
1667255164604568300,3.930568359375,7.465273857116699,-3.8610973358154297,-4.134044170379639
1667255164609526800,3.93552685546875,5.281008720397949,-4.41234827041626,-4.5068535804748535
1667255164614485200,3.9404853515625,3.541646957397461,-4.882781982421875,-4.784567356109619
1667255164619444000,3.94544384765625,2.344459056854248,-5.192564964294434,-4.973221778869629
1667255164624402400,3.95040234375,1.6187705993652344,-5.392192840576172,-5.0872802734375
1667255164629361000,3.95536083984375,1.3810951709747314,-5.471070289611816,-5.157005786895752
1667255164634319600,3.960319580078125,1.7615330219268799,-5.4115095138549805,-5.1650309562683105
1667255164639278000,3.965278076171875,2.7753233909606934,-5.255446434020996,-5.135028839111328
1667255164644236500,3.970236572265625,4.0745320320129395,-5.112972259521484,-5.096766471862793
1667255164649195300,3.9751953125,5.377453804016113,-5.087096214294434,-5.075168132781982
1667255164654153700,3.98015380859375,6.491894245147705,-5.164933204650879,-5.054126739501953
1667255164659112200,3.9851123046875,7.286915302276611,-5.363680362701416,-5.014074325561523
1667255164664071000,3.99007080078125,7.870765209197998,-5.620445251464844,-4.903331279754639
1667255164669029400,3.995029296875,8.273818969726562,-5.855776786804199,-4.747754096984863
1667255164673987800,3.99998779296875,8.41550064086914,-6.058221340179443,-4.550793170928955
1667255164678946300,4.0049462890625,8.152593612670898,-6.156421661376953,-4.391768455505371
1667255164683905000,4.009905029296875,7.856158256530762,-6.144818305969238,-4.226899147033691
1667255164688863500,4.014863525390625,8.022529602050781,-6.063135623931885,-4.060470104217529
1667255164693822000,4.019822021484375,8.735292434692383,-5.934357643127441,-3.835744857788086
1667255164698780700,4.02478076171875,9.92751407623291,-5.817399024963379,-3.544919729232788
1667255164703739100,4.0297392578125,11.410820960998535,-5.70542573928833,-3.226874828338623
1667255164708697600,4.034697509765625,12.748038291931152,-5.6069560050964355,-2.9221997261047363
1667255164713656300,4.03965625,13.643274307250977,-5.488693714141846,-2.6720104217529297
1667255164718614800,4.04461474609375,14.145652770996094,-5.295612335205078,-2.50705623626709
1667255164723573200,4.0495732421875,14.339714050292969,-5.053982257843018,-2.357041597366333
1667255164728531700,4.05453173828125,14.245732307434082,-4.796317100524902,-2.2378642559051514
1667255164733490400,4.059490478515625,13.811210632324219,-4.667492389678955,-2.18489408493042
1667255164738449000,4.064448974609375,13.072766304016113,-4.642753601074219,-2.2512176036834717
1667255164743407400,4.069407470703125,12.306622505187988,-4.690171241760254,-2.3023266792297363
1667255164748366000,4.074365966796875,11.706703186035156,-4.725223541259766,-2.329191207885742
1667255164753324500,4.079324462890625,11.339448928833008,-4.741090297698975,-2.332228660583496
1667255164758283000,4.084282958984375,11.177557945251465,-4.747626304626465,-2.3130311965942383
1667255164763241700,4.08924169921875,11.206701278686523,-4.778803825378418,-2.3006906509399414
1667255164768200200,4.0942001953125,11.28795337677002,-4.848133087158203,-2.2490110397338867
1667255164773158700,4.09915869140625,11.390575408935547,-4.957233428955078,-2.2388198375701904
1667255164778117000,4.1041171875,11.587247848510742,-5.09584903717041,-2.181432008743286
1667255164783075800,4.109075927734375,11.906951904296875,-5.215250015258789,-2.084117889404297
1667255164788034300,4.114034423828125,12.281423568725586,-5.235481262207031,-1.9580663442611694
1667255164792992800,4.11899267578125,12.641166687011719,-5.137211799621582,-1.7938809394836426
1667255164797951500,4.123951416015625,12.955022811889648,-4.97762393951416,-1.6057428121566772
1667255164802910000,4.128909912109375,13.193363189697266,-4.752581596374512,-1.437049150466919
1667255164807868400,4.133868408203125,13.312814712524414,-4.497684478759766,-1.281738519668579
1667255164812827100,4.1388271484375,13.375588417053223,-4.282910346984863,-1.1778299808502197
1667255164817785600,4.14378564453125,13.399688720703125,-4.04196834564209,-1.1132850646972656
1667255164822744000,4.148744140625,13.358789443969727,-3.705904483795166,-1.0654504299163818
1667255164827702800,4.153702880859375,13.299509048461914,-3.324326753616333,-1.0092346668243408
1667255164832661200,4.1586611328125,13.230250358581543,-3.0079288482666016,-0.972203254699707
1667255164837619700,4.16361962890625,13.163043022155762,-2.7732160091400146,-0.9769564867019653
1667255164842578400,4.168578369140625,13.1980562210083,-2.6905903816223145,-0.9328186511993408
1667255164847537000,4.173536865234375,13.385973930358887,-2.6212751865386963,-0.892552375793457
1667255164852495400,4.178495361328125,13.723294258117676,-2.5173585414886475,-0.7499713897705078
1667255164857454000,4.1834541015625,14.217082977294922,-2.3632102012634277,-0.6109189987182617
1667255164862412500,4.18841259765625,14.868368148803711,-2.233116865158081,-0.3821449279785156
1667255164867371000,4.19337109375,15.6242094039917,-2.1140196323394775,-0.1238410472869873
1667255164872329500,4.19832958984375,16.436511993408203,-2.051562786102295,0.17958378791809082
1667255164877288200,4.2032880859375,17.207090377807617,-1.9644711017608643,0.5008647441864014
1667255164882246700,4.20824658203125,17.832191467285156,-1.8094675540924072,0.8409514427185059
1667255164887205000,4.213205078125,18.203914642333984,-1.5071582794189453,1.1806387901306152
1667255164892163800,4.218163818359375,18.291767120361328,-1.1202418804168701,1.469001293182373
1667255164897122300,4.223122314453125,18.06021499633789,-0.6634804010391235,1.711106300354004
1667255164902080800,4.228080810546875,17.567691802978516,-0.2257523536682129,1.8663146495819092
1667255164907039500,4.23303955078125,16.968355178833008,0.18451571464538574,1.9445589780807495
1667255164911998000,4.237998046875,16.312026977539062,0.6328319311141968,1.9548183679580688
1667255164916956400,4.242956298828125,15.613381385803223,1.1392573118209839,1.8875187635421753
1667255164921915000,4.247914794921875,14.871005058288574,1.6005421876907349,1.763009786605835
1667255164926873600,4.25287353515625,14.127182960510254,1.9478464126586914,1.5769977569580078
1667255164931832000,4.25783203125,13.436841011047363,2.107210159301758,1.3574001789093018
1667255164936790500,4.26279052734375,12.822186470031738,2.16365122795105,1.180612564086914
1667255164941749200,4.267749267578125,12.327923774719238,2.197490692138672,1.0722801685333252
1667255164946707700,4.272707763671875,12.193509101867676,2.265899181365967,1.0541224479675293
1667255164951666200,4.277666259765625,12.538675308227539,2.3243751525878906,1.139472246170044
1667255164956625000,4.282625,13.29195785522461,2.3807621002197266,1.3281095027923584
1667255164961583400,4.287583251953125,14.231510162353516,2.379446268081665,1.5808086395263672
1667255164966541800,4.292541748046875,15.171663284301758,2.4155850410461426,1.8960943222045898
1667255164971500500,4.29750048828125,15.915060997009277,2.5008888244628906,2.2153267860412598
1667255164976459000,4.302458984375,16.265899658203125,2.6450512409210205,2.4944024085998535
1667255164981417500,4.30741748046875,16.230754852294922,2.8506994247436523,2.7161219120025635
1667255164986376200,4.312376220703125,15.913220405578613,3.1050362586975098,2.859865665435791
1667255164991334700,4.317334716796875,15.877009391784668,3.3783011436462402,2.972330093383789
1667255164996293000,4.322293212890625,16.313648223876953,3.7365713119506836,3.1235387325286865
1667255165001251800,4.327251953125,16.709468841552734,4.153753757476807,3.2533185482025146
1667255165006210300,4.332210205078125,16.884784698486328,4.54518461227417,3.3223588466644287
1667255165011168800,4.337168701171875,16.842838287353516,4.868948936462402,3.369905710220337
1667255165016127200,4.342127197265625,16.560382843017578,5.0111002922058105,3.3481061458587646
1667255165021086000,4.3470859375,16.099994659423828,4.913440704345703,3.2621238231658936
1667255165026044400,4.35204443359375,15.426273345947266,4.815946578979492,3.2280325889587402
1667255165031003000,4.3570029296875,14.815817832946777,4.861481666564941,3.3077287673950195
1667255165035961600,4.361961669921875,14.670186996459961,4.811026573181152,3.4021050930023193
1667255165040920000,4.366920166015625,15.070084571838379,4.769747734069824,3.5317468643188477
1667255165045878500,4.37187841796875,15.953922271728516,4.741249084472656,3.723904609680176
1667255165050837200,4.376837158203125,16.73914337158203,4.705385208129883,3.92879581451416
1667255165055795700,4.381795654296875,16.969383239746094,4.710689544677734,4.063420295715332
1667255165060754200,4.386754150390625,16.52688217163086,4.760580062866211,4.072105407714844
1667255165065713000,4.391712890625,15.390542030334473,4.838231086730957,4.0016703605651855
1667255165070671400,4.39667138671875,14.068363189697266,4.899233818054199,3.838487148284912
1667255165075629800,4.4016298828125,13.231179237365723,4.944579124450684,3.7026495933532715
1667255165080588500,4.406588623046875,13.106894493103027,5.083016872406006,3.6096649169921875
1667255165085547000,4.411547119140625,13.509658813476562,5.230495452880859,3.5676255226135254
1667255165090505500,4.41650537109375,14.089458465576172,5.419396877288818,3.582947254180908
1667255165095464200,4.421464111328125,14.317373275756836,5.533170700073242,3.580369234085083
1667255165100422700,4.426422607421875,14.026576042175293,5.442310810089111,3.541205406188965
1667255165105381000,4.431381103515625,13.460871696472168,5.336646556854248,3.5255980491638184
1667255165110339600,4.436339599609375,12.92491626739502,5.309153079986572,3.5785951614379883
1667255165115298300,4.44129833984375,12.802746772766113,5.366396427154541,3.6870734691619873
1667255165120256800,4.4462568359375,13.298402786254883,5.422811985015869,3.8335812091827393
1667255165125215200,4.45121533203125,14.352624893188477,5.4645562171936035,4.036235809326172
1667255165130174000,4.456174072265625,15.574021339416504,5.4887871742248535,4.268331050872803
1667255165135132400,4.46113232421875,16.535648345947266,5.521317958831787,4.469929218292236
1667255165140091000,4.4660908203125,16.83026123046875,5.601531505584717,4.566352367401123
1667255165145049600,4.471049560546875,16.291290283203125,5.763167858123779,4.561067581176758
1667255165150008000,4.476008056640625,15.14040470123291,5.974121570587158,4.4404473304748535
1667255165154966500,4.480966552734375,13.825942993164062,6.145125389099121,4.265291690826416
1667255165159925200,4.48592529296875,12.815694808959961,6.335021018981934,4.135385990142822
1667255165164883700,4.4908837890625,12.252822875976562,6.481709957122803,3.999034881591797
1667255165169842200,4.49584228515625,12.064149856567383,6.621367454528809,3.9077394008636475
1667255165174801000,4.50080078125,12.077505111694336,6.778246879577637,3.8286476135253906
1667255165179759400,4.50575927734375,12.011176109313965,6.962214946746826,3.7358293533325195
1667255165184717800,4.5107177734375,11.696138381958008,7.0872650146484375,3.623555898666382
1667255165189676300,4.51567626953125,11.089494705200195,7.147613048553467,3.4921650886535645
1667255165194635000,4.520635009765625,10.421134948730469,7.194797039031982,3.397864818572998
1667255165199593500,4.525593505859375,9.836116790771484,7.284010887145996,3.32534122467041
1667255165204552000,4.530552001953125,9.439820289611816,7.355529308319092,3.273721694946289
1667255165209510700,4.5355107421875,9.289651870727539,7.433257102966309,3.239847183227539
1667255165214469000,4.54046923828125,9.377220153808594,7.490848064422607,3.239779472351074
1667255165219427800,4.545427734375,9.654687881469727,7.54020881652832,3.254913330078125
1667255165224386300,4.55038623046875,10.129049301147461,7.581196308135986,3.2975516319274902
1667255165229344800,4.5553447265625,10.788091659545898,7.618404865264893,3.348965644836426
1667255165234303200,4.56030322265625,11.035552024841309,7.675920009613037,3.36698055267334
1667255165239262000,4.565261962890625,10.755060195922852,7.782657623291016,3.312492847442627
1667255165244220400,4.570220458984375,10.168432235717773,7.9101386070251465,3.2187681198120117
1667255165249179000,4.575178955078125,9.493473052978516,8.029864311218262,3.099503993988037
1667255165254137600,4.5801376953125,8.835533142089844,8.181529998779297,2.9768991470336914
1667255165259096000,4.585095947265625,8.35196304321289,8.244409561157227,2.846482753753662
1667255165264054500,4.590054443359375,7.9624834060668945,8.310839653015137,2.7181777954101562
1667255165269013200,4.59501318359375,7.627754211425781,8.438444137573242,2.6165614128112793
1667255165273971700,4.5999716796875,7.368401527404785,8.583231925964355,2.5174736976623535
1667255165278930200,4.60493017578125,7.191763877868652,8.71428394317627,2.4364099502563477
1667255165283889000,4.609888916015625,7.0227227210998535,8.809028625488281,2.358024835586548
1667255165288847400,4.614847412109375,6.841111660003662,8.890240669250488,2.2802882194519043
1667255165293805800,4.619805908203125,6.64351749420166,8.948373794555664,2.20736026763916
1667255165298764500,4.6247646484375,6.41462516784668,8.995426177978516,2.1326043605804443
1667255165303723000,4.629722900390625,6.173867702484131,9.052979469299316,2.0626020431518555
1667255165308681500,4.634681396484375,5.965487003326416,9.091086387634277,2.000192403793335
1667255165313640000,4.639639892578125,5.779994964599609,9.146835327148438,1.9420485496520996
1667255165318598700,4.6445986328125,5.631680011749268,9.19385814666748,1.8766002655029297
1667255165323557000,4.64955712890625,5.522861003875732,9.21898365020752,1.8077192306518555
1667255165328515600,4.654515625,5.413881301879883,9.240093231201172,1.7700412273406982
1667255165333474300,4.659474365234375,5.32259464263916,9.255970001220703,1.7110514640808105
1667255165338432800,4.664432861328125,5.240346908569336,9.273689270019531,1.6439683437347412
1667255165343391200,4.66939111328125,5.149151802062988,9.283693313598633,1.573509693145752
1667255165348350000,4.674349853515625,5.024797439575195,9.29188346862793,1.5078344345092773
1667255165353308400,4.679308349609375,4.84459114074707,9.304272651672363,1.4442317485809326
1667255165358267000,4.684266845703125,4.613292694091797,9.329230308532715,1.363288402557373
1667255165363225600,4.6892255859375,4.352440357208252,9.353620529174805,1.2623426914215088
1667255165368184000,4.69418408203125,4.0978102684021,9.394172668457031,1.1816737651824951
1667255165373142500,4.699142578125,3.8469066619873047,9.410234451293945,1.0649327039718628
1667255165378101200,4.704101318359375,3.635509490966797,9.420966148376465,0.9787677526473999
1667255165383059700,4.709059814453125,3.4455947875976562,9.422797203063965,0.9109587669372559
1667255165388018200,4.71401806640625,3.275784730911255,9.437220573425293,0.8123666048049927
1667255165392977000,4.718976806640625,3.120144844055176,9.437971115112305,0.7366665601730347
1667255165397935400,4.723935302734375,2.96309232711792,9.441795349121094,0.6527947783470154
1667255165402893800,4.728893798828125,2.8238422870635986,9.43916130065918,0.5631250739097595
1667255165407852500,4.7338525390625,2.6989030838012695,9.448033332824707,0.47245508432388306
1667255165412811000,4.73881103515625,2.6085610389709473,9.444496154785156,0.4085071384906769
1667255165417769500,4.74376953125,2.52290940284729,9.451272964477539,0.3319101333618164
1667255165422728200,4.748728271484375,2.456413745880127,9.455233573913574,0.2667442560195923
1667255165427686700,4.753686767578125,2.3910489082336426,9.448004722595215,0.20720480382442474
1667255165432645000,4.75864501953125,2.317354679107666,9.453522682189941,0.14987382292747498
1667255165437603600,4.763603515625,2.264070987701416,9.440716743469238,0.09615390002727509
1667255165442562300,4.768562255859375,2.2120673656463623,9.433516502380371,0.04505366086959839
1667255165447520800,4.773520751953125,2.1576743125915527,9.409211158752441,-0.005633190274238586
1667255165452479500,4.7784794921875,2.1068384647369385,9.407265663146973,-0.0545613169670105
1667255165457438000,4.78343798828125,2.051252841949463,9.406166076660156,-0.10515622794628143
1667255165462396400,4.788396484375,1.989716649055481,9.41309928894043,-0.15369170904159546
1667255165467355000,4.79335498046875,1.9149749279022217,9.406549453735352,-0.21925413608551025
1667255165472313600,4.798313720703125,1.7303650379180908,9.425997734069824,-0.2801969349384308
1667255165477272000,4.80327197265625,1.6844840049743652,9.412863731384277,-0.342515766620636
1667255165482230500,4.80823046875,1.7136644124984741,9.382734298706055,-0.38460099697113037
1667255165487189200,4.813189208984375,1.760406255722046,9.382253646850586,-0.41124284267425537
1667255165492147700,4.818147705078125,1.8031198978424072,9.377944946289062,-0.4703047573566437
1667255165497106200,4.823106201171875,1.9229787588119507,9.345934867858887,-0.4948819875717163
1667255165502065000,4.82806494140625,2.0611472129821777,9.324528694152832,-0.5278747081756592
1667255165507023400,4.8330234375,2.2043166160583496,9.29820728302002,-0.5586228370666504
1667255165511981800,4.83798193359375,2.3118252754211426,9.283736228942871,-0.5800268650054932
1667255165516940500,4.8429404296875,2.430112361907959,9.254854202270508,-0.6147894263267517
1667255165521899000,4.84789892578125,2.545928955078125,9.251051902770996,-0.64984530210495
1667255165526857500,4.852857421875,2.642404556274414,9.229326248168945,-0.6708695888519287
1667255165531816200,4.857816162109375,2.721921682357788,9.22199821472168,-0.7067217826843262
1667255165536774700,4.862774658203125,2.790355920791626,9.204014778137207,-0.7381798028945923
1667255165541733000,4.867733154296875,2.841689109802246,9.181398391723633,-0.7642660140991211
1667255165546691800,4.87269189453125,2.8878540992736816,9.168547630310059,-0.8040672540664673
1667255165551650300,4.877650390625,2.933607578277588,9.152347564697266,-0.8516576290130615
1667255165556608800,4.88260888671875,2.9800639152526855,9.126873016357422,-0.8772901892662048
1667255165561567500,4.8875673828125,3.025991916656494,9.104146957397461,-0.9203224778175354
1667255165566526000,4.89252587890625,3.0641937255859375,9.083014488220215,-0.9545426368713379
1667255165571484400,4.897484375,3.098177194595337,9.069487571716309,-0.982521653175354
1667255165576443100,4.902443115234375,3.166134834289551,9.048088073730469,-1.0340549945831299
1667255165581401600,4.907401611328125,3.2023086547851562,9.020059585571289,-1.0470860004425049
1667255165586360000,4.912360107421875,3.2675318717956543,8.992652893066406,-1.0766146183013916
1667255165591318500,4.917318603515625,3.3366265296936035,8.968294143676758,-1.1132644414901733
1667255165596277200,4.92227734375,3.4178850650787354,8.920774459838867,-1.1485180854797363
1667255165601235700,4.927235595703125,3.4933252334594727,8.89198112487793,-1.164641261100769
1667255165606194400,4.9321943359375,3.5843257904052734,8.858080863952637,-1.1795240640640259
1667255165611153000,4.93715283203125,3.670559883117676,8.820317268371582,-1.2099719047546387
1667255165616111400,4.942111328125,3.756624698638916,8.770418167114258,-1.2201868295669556
1667255165621070000,4.947070068359375,3.8449339866638184,8.744297981262207,-1.2472219467163086
1667255165626028500,4.952028564453125,3.9497342109680176,8.704954147338867,-1.2552653551101685
1667255165630987000,4.956987060546875,4.056561470031738,8.65846061706543,-1.3052555322647095
1667255165635945500,4.961945556640625,4.160621643066406,8.609650611877441,-1.3243381977081299
1667255165640904200,4.966904296875,4.260647773742676,8.569356918334961,-1.3376529216766357
1667255165645862700,4.971862548828125,4.351717948913574,8.523327827453613,-1.3535292148590088
1667255165650821400,4.9768212890625,4.454097747802734,8.459681510925293,-1.3792133331298828
1667255165655779800,4.98177978515625,4.551012992858887,8.404783248901367,-1.3968017101287842
1667255165660738300,4.98673828125,4.656700134277344,8.3539400100708,-1.4086205959320068
1667255165665696800,4.99169677734375,4.780647277832031,8.309587478637695,-1.4350906610488892
1667255165670655500,4.996655517578125,4.880806922912598,8.25151538848877,-1.4570664167404175
1667255165675614000,5.001614013671875,5.004965782165527,8.175026893615723,-1.4733281135559082
1667255165680572400,5.006572509765625,5.107645034790039,8.111265182495117,-1.4899022579193115
1667255165685531100,5.01153125,5.240045547485352,8.063899040222168,-1.5128052234649658
1667255165690489600,5.016489501953125,5.347011566162109,8.001930236816406,-1.526501178741455
1667255165695448000,5.021447998046875,5.460793972015381,7.94455099105835,-1.5333583354949951
1667255165700406800,5.02640673828125,5.579992294311523,7.881075859069824,-1.5574127435684204
1667255165705365200,5.031365234375,5.693717956542969,7.7924652099609375,-1.5568063259124756
1667255165710323700,5.03632373046875,5.822078227996826,7.712294578552246,-1.5841865539550781
1667255165715282400,5.041282470703125,5.95893669128418,7.631051063537598,-1.6013199090957642
1667255165720241000,5.046240966796875,6.10283088684082,7.5297112464904785,-1.6094141006469727
1667255165725199400,5.051199462890625,6.2558135986328125,7.443050384521484,-1.6073566675186157
1667255165730158000,5.056157958984375,6.466511249542236,7.305411338806152,-1.6024401187896729
1667255165735116500,5.061116455078125,6.703494071960449,7.149190902709961,-1.6197850704193115
1667255165740075000,5.066074951171875,6.95782470703125,6.9637770652771,-1.6248059272766113
1667255165745033700,5.07103369140625,7.271989822387695,6.775586128234863,-1.602057695388794
1667255165749992200,5.0759921875,7.615605354309082,6.540465831756592,-1.5778876543045044
1667255165754950700,5.08095068359375,7.997549057006836,6.281265735626221,-1.564295768737793
1667255165759909400,5.085909423828125,8.408802032470703,5.9944682121276855,-1.525464415550232
1667255165764867800,5.090867919921875,8.837885856628418,5.668203353881836,-1.5020040273666382
1667255165769826300,5.095826416015625,9.294878959655762,5.332382678985596,-1.469919204711914
1667255165774785000,5.100784912109375,9.76953411102295,4.961863994598389,-1.4315237998962402
1667255165779743500,5.105743408203125,10.239688873291016,4.582871913909912,-1.3914036750793457
1667255165784702000,5.110701904296875,10.702354431152344,4.192876815795898,-1.338505506515503
1667255165789660700,5.11566064453125,11.098589897155762,3.8262691497802734,-1.282111644744873
1667255165794619100,5.120619140625,11.416218757629395,3.470768928527832,-1.2492029666900635
1667255165799577600,5.12557763671875,11.588367462158203,3.184493064880371,-1.2392613887786865
1667255165804536300,5.130536376953125,11.551146507263184,2.9931082725524902,-1.244515061378479
1667255165809494800,5.135494873046875,11.24564266204834,2.943737030029297,-1.2810999155044556
1667255165814453200,5.140453369140625,10.645886421203613,3.055875301361084,-1.3735418319702148
1667255165819412000,5.145411865234375,9.752458572387695,3.3203277587890625,-1.4747575521469116
1667255165824370400,5.150370361328125,8.785746574401855,3.6371679306030273,-1.5976179838180542
1667255165829329000,5.155328857421875,7.969329833984375,3.874380111694336,-1.7049825191497803
1667255165834287600,5.16028759765625,7.459200382232666,3.9515366554260254,-1.7898683547973633
1667255165839246000,5.16524609375,7.320201873779297,3.866039276123047,-1.8464767932891846
1667255165844204500,5.17020458984375,7.511650085449219,3.633173942565918,-1.8740649223327637
1667255165849163300,5.175163330078125,7.89021110534668,3.3040523529052734,-1.9065852165222168
1667255165854121700,5.180121826171875,8.300918579101562,3.0061559677124023,-1.9315533638000488
1667255165859080200,5.185080078125,8.649774551391602,2.786747932434082,-1.9843981266021729
1667255165864039000,5.190038818359375,8.919600486755371,2.62856388092041,-2.008448600769043
1667255165868997400,5.194997314453125,9.127809524536133,2.5203466415405273,-2.0523598194122314
1667255165873955800,5.199955810546875,9.21878433227539,2.509490966796875,-2.06893253326416
1667255165878914600,5.20491455078125,9.22048568725586,2.5382118225097656,-2.0921823978424072
1667255165883873000,5.209873046875,9.14750862121582,2.5871009826660156,-2.115190029144287
1667255165888831500,5.21483154296875,9.06562328338623,2.6403446197509766,-2.127328634262085
1667255165893790200,5.219790283203125,9.052255630493164,2.627195358276367,-2.1069371700286865
1667255165898748700,5.224748779296875,9.195473670959473,2.5522890090942383,-2.0751771926879883
1667255165903707100,5.22970703125,9.538732528686523,2.420236110687256,-2.0073957443237305
1667255165908665900,5.234665771484375,10.027423858642578,2.2176475524902344,-1.9027576446533203
1667255165913624300,5.239624267578125,10.572487831115723,2.0136265754699707,-1.7638144493103027
1667255165918582800,5.244582763671875,11.159138679504395,1.800765037536621,-1.638230562210083
1667255165923541200,5.249541259765625,11.713096618652344,1.6039581298828125,-1.492366075515747
1667255165928500000,5.2545,12.186460494995117,1.4444670677185059,-1.3522584438323975
1667255165933458400,5.25945849609375,12.512624740600586,1.270693302154541,-1.2393040657043457
1667255165938417200,5.264417236328125,12.648307800292969,1.1603574752807617,-1.1213314533233643
1667255165943375600,5.269375732421875,12.58270263671875,1.1242008209228516,-1.0250606536865234
1667255165948334000,5.274333984375,12.375850677490234,1.1432280540466309,-0.9548449516296387
1667255165953292500,5.27929248046875,12.097500801086426,1.1616086959838867,-0.8962001800537109
1667255165958251300,5.284251220703125,11.840057373046875,1.214432716369629,-0.8243565559387207
1667255165963209700,5.289209716796875,11.631387710571289,1.2986373901367188,-0.7723090648651123
1667255165968168400,5.29416845703125,11.48489761352539,1.408858299255371,-0.7278618812561035
1667255165973127000,5.299126953125,11.346879959106445,1.5481767654418945,-0.6705029010772705
1667255165978085400,5.30408544921875,11.237722396850586,1.6863718032836914,-0.6288959980010986
1667255165983043800,5.3090439453125,11.155879020690918,1.8876090049743652,-0.5896246433258057
1667255165988002600,5.31400244140625,11.043447494506836,2.039170742034912,-0.5332095623016357
1667255165992961000,5.3189609375,10.953361511230469,2.181344509124756,-0.4709007740020752
1667255165997919700,5.323919677734375,10.927597045898438,2.246723175048828,-0.4056580066680908
1667255166002878200,5.328878173828125,10.994775772094727,2.2754974365234375,-0.3282938003540039
1667255166007836700,5.333836669921875,11.1439790725708,2.280235767364502,-0.24761176109313965
1667255166012795400,5.33879541015625,11.332038879394531,2.2604260444641113,-0.15928339958190918
1667255166017753900,5.34375390625,11.507503509521484,2.269331216812134,-0.07595443725585938
1667255166022712300,5.34871240234375,11.6441650390625,2.3232154846191406,-0.0070149898529052734
1667255166027670800,5.3536708984375,11.693095207214355,2.3773293495178223,0.0618436336517334
1667255166032629500,5.35862939453125,11.613726615905762,2.4323196411132812,0.07059431076049805
1667255166037588000,5.363587890625,11.43244743347168,2.4996848106384277,0.056066036224365234
1667255166042546700,5.368546630859375,11.149222373962402,2.581403970718384,0.031288862228393555
1667255166047505200,5.373505126953125,10.847551345825195,2.675806999206543,-0.009632349014282227
1667255166052463600,5.378463623046875,10.660938262939453,2.7956278324127197,-0.03636431694030762
1667255166057422000,5.383422119140625,10.653238296508789,2.9367194175720215,-0.044324398040771484
1667255166062380800,5.388380859375,10.846297264099121,3.1116702556610107,0.008784890174865723
1667255166067339300,5.39333935546875,11.192415237426758,3.2910547256469727,0.08259153366088867
1667255166072298000,5.398298095703125,11.643823623657227,3.473062515258789,0.21771883964538574
1667255166077256400,5.40325634765625,12.15979290008545,3.6136884689331055,0.38270580768585205
1667255166082215000,5.40821484375,12.753347396850586,3.691372871398926,0.5727536678314209
1667255166087173400,5.41317333984375,13.381363868713379,3.6617395877838135,0.7951247692108154
1667255166092132000,5.418132080078125,14.022418022155762,3.495734691619873,1.0363706350326538
1667255166097090600,5.423090576171875,14.648153305053711,3.2644975185394287,1.2717167139053345
1667255166102049300,5.42804931640625,15.246131896972656,2.9972925186157227,1.4861034154891968
1667255166107007700,5.4330078125,15.740961074829102,2.7091808319091797,1.669283151626587
1667255166111966200,5.43796630859375,16.025453567504883,2.405522108078003,1.8237580060958862
1667255166116924700,5.442924560546875,16.10753059387207,2.1348438262939453,1.9195806980133057
1667255166121883400,5.44788330078125,15.959417343139648,1.8394044637680054,1.951874852180481
1667255166126841900,5.452841796875,15.556909561157227,1.5655792951583862,1.8912945985794067
1667255166131800600,5.457800537109375,15.01910400390625,1.3130251169204712,1.8265236616134644
1667255166136759000,5.462759033203125,14.508951187133789,1.0864052772521973,1.7173939943313599
1667255166141717500,5.467717529296875,14.126861572265625,0.8867061734199524,1.6234760284423828
1667255166146676200,5.47267626953125,13.987271308898926,0.7425092458724976,1.5361127853393555
1667255166151634700,5.477634765625,14.069315910339355,0.6057298183441162,1.4789557456970215
1667255166156593200,5.48259326171875,14.354475975036621,0.49417799711227417,1.4866158962249756
1667255166161551600,5.487551513671875,14.714303016662598,0.3739914298057556,1.5303964614868164
1667255166166510300,5.49251025390625,15.088674545288086,0.20885425806045532,1.602630376815796
1667255166171468800,5.49746875,15.453451156616211,-0.044959187507629395,1.6842210292816162
1667255166176427500,5.502427490234375,15.792976379394531,-0.39907121658325195,1.7692885398864746
1667255166181386000,5.507385986328125,16.08332061767578,-0.8303836584091187,1.8182200193405151
1667255166186344400,5.512344482421875,16.439260482788086,-1.2871686220169067,1.9047794342041016
1667255166191303000,5.517302978515625,16.801040649414062,-1.7427723407745361,1.968169927597046
1667255166196261600,5.52226171875,16.99671173095703,-2.1847472190856934,2.0116207599639893
1667255166201220000,5.52722021484375,16.938236236572266,-2.5764570236206055,2.0172805786132812
1667255166206178800,5.5321787109375,16.573549270629883,-2.926760673522949,1.9627689123153687
1667255166211137300,5.53713720703125,16.10863494873047,-3.2394511699676514,1.9224252700805664
1667255166216095700,5.542095703125,15.591580390930176,-3.494313955307007,1.8988511562347412
1667255166221054200,5.54705419921875,15.059808731079102,-3.7522172927856445,1.817118525505066
1667255166226013000,5.552012939453125,14.746612548828125,-3.8956751823425293,1.7600963115692139
1667255166230971400,5.556971435546875,15.053420066833496,-4.047799110412598,1.7509238719940186
1667255166235930000,5.56193017578125,15.812370300292969,-4.231442928314209,1.8186358213424683
1667255166240888600,5.566888671875,16.55335235595703,-4.421398162841797,1.9013910293579102
1667255166245847000,5.571846923828125,16.974079132080078,-4.582808494567871,1.9687526226043701
1667255166250805500,5.576805419921875,16.97816276550293,-4.71904182434082,2.0115840435028076
1667255166255764200,5.58176416015625,16.505264282226562,-4.871755599975586,1.9829120635986328
1667255166260722700,5.58672265625,15.680477142333984,-5.050500869750977,1.9162657260894775
1667255166265681400,5.591681396484375,14.859375953674316,-5.274174690246582,1.8309324979782104
1667255166270639900,5.596639892578125,14.399707794189453,-5.5526299476623535,1.7829279899597168
1667255166275598300,5.601598388671875,14.559608459472656,-5.875319480895996,1.788651943206787
1667255166280557000,5.60655712890625,15.129759788513184,-6.205392837524414,1.8051433563232422
1667255166285515500,5.611515625,15.645304679870605,-6.517621040344238,1.78047513961792
1667255166290474000,5.616473876953125,15.780508995056152,-6.797542572021484,1.720076322555542
1667255166295432700,5.6214326171875,15.47390365600586,-6.975420951843262,1.6210166215896606
1667255166300391200,5.62639111328125,14.628158569335938,-7.098487377166748,1.470726728439331
1667255166305349600,5.631349609375,13.384955406188965,-7.170679569244385,1.285092830657959
1667255166310308400,5.636308349609375,12.189216613769531,-7.174351692199707,1.0827832221984863
1667255166315266800,5.641266845703125,11.504337310791016,-7.148046016693115,0.9392743110656738
1667255166320225300,5.646225341796875,11.505086898803711,-7.133990287780762,0.8664038777351379
1667255166325184000,5.65118408203125,12.183090209960938,-7.145820617675781,0.8794128894805908
1667255166330142500,5.656142578125,13.262252807617188,-7.166341781616211,0.9669300317764282
1667255166335101000,5.661100830078125,14.274134635925293,-7.16508674621582,1.0833677053451538
1667255166340059600,5.6660595703125,14.84752368927002,-7.140364170074463,1.1581413745880127
1667255166345018000,5.67101806640625,14.747753143310547,-7.1165995597839355,1.169693946838379
1667255166349976600,5.6759765625,14.0322265625,-7.138731479644775,1.1156516075134277
1667255166354935300,5.680935302734375,13.122926712036133,-7.195640563964844,1.0106475353240967
1667255166359893800,5.685893798828125,12.416402816772461,-7.289535999298096,0.9202451705932617
1667255166364852200,5.690852294921875,12.086565017700195,-7.4154510498046875,0.860241174697876
1667255166369811000,5.69581103515625,12.055196762084961,-7.53508996963501,0.8231184482574463
1667255166374769400,5.700769287109375,12.256143569946289,-7.638800621032715,0.7986117601394653
1667255166379728000,5.705727783203125,12.580391883850098,-7.719443321228027,0.7851029634475708
1667255166384686600,5.7106865234375,12.787480354309082,-7.796064376831055,0.7537542581558228
1667255166389645000,5.71564501953125,12.667190551757812,-7.867428779602051,0.6781940460205078
1667255166394603500,5.720603515625,12.05020809173584,-7.944243431091309,0.533205509185791
1667255166399562200,5.725562255859375,11.075643539428711,-7.997686862945557,0.33198797702789307
1667255166404520700,5.730520751953125,10.06889533996582,-8.039684295654297,0.15131032466888428
1667255166409479200,5.735479248046875,9.261463165283203,-8.035380363464355,-0.0200728178024292
1667255166414438000,5.74043798828125,8.713709831237793,-8.02418327331543,-0.177345871925354
1667255166419396400,5.745396240234375,8.47275161743164,-7.990506649017334,-0.2725369930267334
1667255166424354800,5.750354736328125,8.525796890258789,-7.942729949951172,-0.3097679615020752
1667255166429313500,5.7553134765625,8.856422424316406,-7.896459579467773,-0.3393974304199219
1667255166434272000,5.76027197265625,9.339406967163086,-7.839825630187988,-0.31713545322418213
1667255166439230500,5.76523046875,9.794628143310547,-7.791985511779785,-0.28622257709503174
1667255166444189200,5.770189208984375,10.037515640258789,-7.748317241668701,-0.29092931747436523
1667255166449147600,5.775147705078125,9.975850105285645,-7.738855361938477,-0.3221628665924072
1667255166454106000,5.780106201171875,9.72909927368164,-7.757757186889648,-0.3902003765106201
1667255166459064800,5.78506494140625,9.365513801574707,-7.825607776641846,-0.45418357849121094
1667255166464023300,5.790023193359375,8.959379196166992,-7.898386001586914,-0.5323476791381836
1667255166468981800,5.794981689453125,8.56118106842041,-7.995537757873535,-0.6476842164993286
1667255166473940500,5.7999404296875,8.197481155395508,-8.087424278259277,-0.7468845844268799
1667255166478899000,5.80489892578125,7.910452842712402,-8.181534767150879,-0.8602232933044434
1667255166483857400,5.809857421875,7.711042404174805,-8.245863914489746,-0.9461007118225098
1667255166488816000,5.814816162109375,7.628073215484619,-8.333288192749023,-1.0213255882263184
1667255166493774600,5.819774658203125,7.624672889709473,-8.398609161376953,-1.0789144039154053
1667255166498733000,5.824733154296875,7.623356342315674,-8.476770401000977,-1.12838613986969
1667255166503691800,5.82969189453125,7.574339389801025,-8.552453994750977,-1.195051908493042
1667255166508650200,5.834650146484375,7.4206132888793945,-8.6174955368042,-1.276530385017395
1667255166513608700,5.839608642578125,7.1518049240112305,-8.685173034667969,-1.3729968070983887
1667255166518567400,5.8445673828125,6.837545394897461,-8.749648094177246,-1.4616646766662598
1667255166523526000,5.84952587890625,6.481639862060547,-8.787160873413086,-1.5651788711547852
1667255166528484600,5.854484619140625,6.12352991104126,-8.834835052490234,-1.6594961881637573
1667255166533443000,5.859443115234375,5.821904182434082,-8.874871253967285,-1.7456650733947754
1667255166538401500,5.864401611328125,5.589631080627441,-8.90131664276123,-1.8186968564987183
1667255166543360000,5.869360107421875,5.428985118865967,-8.913108825683594,-1.8890745639801025
1667255166548318700,5.874318603515625,5.340857028961182,-8.970047950744629,-1.936246395111084
1667255166553277200,5.879277099609375,5.313166618347168,-8.97182559967041,-1.9766911268234253
1667255166558236000,5.88423583984375,5.324222564697266,-8.992660522460938,-2.029376983642578
1667255166563194400,5.8891943359375,5.325902938842773,-9.012253761291504,-2.071336269378662
1667255166568152800,5.89415283203125,5.333621978759766,-9.052152633666992,-2.1144609451293945
1667255166573111300,5.899111328125,5.306671142578125,-9.04786491394043,-2.15750789642334
1667255166578070000,5.904070068359375,5.215217590332031,-9.050872802734375,-2.184985637664795
1667255166583028500,5.909028564453125,5.094045639038086,-9.051695823669434,-2.2506728172302246
1667255166587987200,5.9139873046875,4.917018890380859,-9.064682006835938,-2.306973695755005
1667255166592945700,5.918945556640625,4.695187568664551,-9.082695007324219,-2.382798671722412
1667255166597904100,5.923904052734375,4.44558048248291,-9.096214294433594,-2.456831932067871
1667255166602862600,5.928862548828125,4.181695461273193,-9.101743698120117,-2.5423712730407715
1667255166607821300,5.9338212890625,3.9397060871124268,-9.126786231994629,-2.632538318634033
1667255166612779800,5.93877978515625,3.6732637882232666,-9.14510726928711,-2.7059009075164795
1667255166617738500,5.943738525390625,3.447226047515869,-9.161548614501953,-2.793684244155884
1667255166622697000,5.948697021484375,3.2330851554870605,-9.153409957885742,-2.8852946758270264
1667255166627655400,5.953655517578125,3.0250918865203857,-9.160192489624023,-2.935410737991333
1667255166632614100,5.9586142578125,2.8520708084106445,-9.149677276611328,-3.004962921142578
1667255166637572600,5.963572509765625,2.6819214820861816,-9.161338806152344,-3.073701858520508
1667255166642531000,5.968531005859375,2.5398764610290527,-9.17366886138916,-3.1296803951263428
1667255166647489800,5.97348974609375,2.416400194168091,-9.165166854858398,-3.192014455795288
1667255166652448300,5.9784482421875,2.2984097003936768,-9.162179946899414,-3.2713840007781982
1667255166657406700,5.98340673828125,2.1717169284820557,-9.164715766906738,-3.330763339996338
1667255166662365400,5.988365478515625,2.048344135284424,-9.145286560058594,-3.3964500427246094
1667255166667324000,5.993323974609375,1.946183443069458,-9.129071235656738,-3.4371676445007324
1667255166672282400,5.998282470703125,1.8234260082244873,-9.121991157531738,-3.494870901107788
1667255166677241000,6.003240966796875,1.7135210037231445,-9.11807632446289,-3.5431370735168457
1667255166682199600,6.008199462890625,1.5889251232147217,-9.082700729370117,-3.6009671688079834
1667255166687158000,6.013157958984375,1.4973225593566895,-9.033818244934082,-3.658703088760376
1667255166692116700,6.01811669921875,1.4003047943115234,-9.021574020385742,-3.7151780128479004
1667255166697075200,6.0230751953125,1.3085405826568604,-9.0005464553833,-3.7654802799224854
1667255166702033700,6.02803369140625,1.2291531562805176,-8.973179817199707,-3.819047451019287
1667255166706992400,6.032992431640625,1.1750811338424683,-8.951362609863281,-3.86755633354187
1667255166711950800,6.037950927734375,1.1138253211975098,-8.908811569213867,-3.9132795333862305
1667255166716909300,6.042909423828125,1.0716482400894165,-8.890968322753906,-3.960977554321289
1667255166721868000,6.047867919921875,1.0423427820205688,-8.854791641235352,-4.002188682556152
1667255166726826500,6.052826416015625,1.0162361860275269,-8.827788352966309,-4.044074058532715
1667255166731785000,6.057784912109375,1.0002915859222412,-8.808737754821777,-4.079437732696533
1667255166736743700,6.06274365234375,0.9979592561721802,-8.786895751953125,-4.128546237945557
1667255166741702100,6.0677021484375,0.999474048614502,-8.765817642211914,-4.163933277130127
1667255166746660600,6.07266064453125,0.9892444610595703,-8.732369422912598,-4.1856160163879395
1667255166751619300,6.077619384765625,0.9850670099258423,-8.708107948303223,-4.219836235046387
1667255166756577800,6.082577880859375,1.0093913078308105,-8.6679105758667,-4.276142597198486
1667255166761536300,6.087536376953125,1.01076078414917,-8.658380508422852,-4.304393291473389
1667255166766495000,6.092494873046875,1.0260721445083618,-8.62928295135498,-4.342881679534912
1667255166771453400,6.097453369140625,1.0433332920074463,-8.603373527526855,-4.376058578491211
1667255166776412200,6.102412109375,1.0576791763305664,-8.567561149597168,-4.416997909545898
1667255166781370600,6.10737060546875,1.0545454025268555,-8.5397367477417,-4.462186813354492
1667255166786329000,6.1123291015625,1.067396879196167,-8.507911682128906,-4.473484039306641
1667255166791287600,6.11728759765625,1.0723365545272827,-8.480515480041504,-4.509435653686523
1667255166796246300,6.122246337890625,1.0752241611480713,-8.449140548706055,-4.555754661560059
1667255166801204700,6.127204833984375,1.0759813785552979,-8.422165870666504,-4.586150646209717
1667255166806163500,6.13216357421875,1.0781761407852173,-8.378113746643066,-4.622132301330566
1667255166811122000,6.137121826171875,1.0912944078445435,-8.345674514770508,-4.641036033630371
1667255166816080400,6.142080322265625,1.1046311855316162,-8.323610305786133,-4.678827285766602
1667255166821038800,6.147038818359375,1.1192394495010376,-8.294034004211426,-4.711508274078369
1667255166825997600,6.15199755859375,1.1459071636199951,-8.252152442932129,-4.723634243011475
1667255166830956000,6.1569560546875,1.1618551015853882,-8.211137771606445,-4.749875068664551
1667255166835914800,6.161914794921875,1.1861865520477295,-8.191296577453613,-4.783074855804443
1667255166840873200,6.166873291015625,1.2021739482879639,-8.157946586608887,-4.8136982917785645
1667255166845831700,6.171831787109375,1.2312415838241577,-8.118317604064941,-4.830923080444336
1667255166850790100,6.1767900390625,1.2674226760864258,-8.077128410339355,-4.852822303771973
1667255166855748900,6.181748779296875,1.2938508987426758,-8.049978256225586,-4.866132736206055
1667255166860707300,6.186707275390625,1.3296570777893066,-8.032023429870605,-4.9091877937316895
1667255166865666000,6.191666015625,1.3627887964248657,-7.9790754318237305,-4.928111553192139
1667255166870624500,6.19662451171875,1.4040138721466064,-7.938945293426514,-4.945687294006348
1667255166875583000,6.2015830078125,1.4233046770095825,-7.902012825012207,-4.969125747680664
1667255166880541700,6.206541748046875,1.4577302932739258,-7.867105960845947,-4.986420631408691
1667255166885500200,6.211500244140625,1.4928419589996338,-7.837830543518066,-5.004685878753662
1667255166890458600,6.216458740234375,1.5262105464935303,-7.795032024383545,-5.037084579467773
1667255166895417300,6.221417236328125,1.5565822124481201,-7.750652313232422,-5.023856163024902
1667255166900375800,6.226375732421875,1.6124615669250488,-7.713037014007568,-5.049866676330566
1667255166905334300,6.231334228515625,1.6627717018127441,-7.649928092956543,-5.076781749725342
1667255166910293000,6.23629296875,1.7120716571807861,-7.611466407775879,-5.092680931091309
