time,seconds_elapsed,z,y,x
1667255160676135400,0.002135498046875,0.4367683231830597,-0.19853104650974274,0.8729257583618164
1667255160678614800,0.00461474609375,0.45875945687294006,-0.17837251722812653,0.8900299668312073
1667255160681094100,0.00709423828125,0.4825831651687622,-0.16065743565559387,0.9101884961128235
1667255160683573200,0.0095732421875,0.5149590373039246,-0.1545487940311432,0.9272927641868591
1667255160686052600,0.012052490234375,0.5913171172142029,-0.23457208275794983,0.9297361969947815
1667255160688531700,0.01453173828125,0.6835576891899109,-0.3481929302215576,0.9285144805908203
1667255160691011000,0.017010986328125,0.7770199775695801,-0.45387253165245056,0.9407317638397217
1667255160693490400,0.019490478515625,0.8662062287330627,-0.5277871489524841,0.9694424271583557
1667255160695969500,0.021969482421875,0.943786084651947,-0.5766563415527344,1.008537769317627
1667255160698449000,0.024448974609375,1.0012073516845703,-0.6133082509040833,1.0586286783218384
1667255160700928300,0.02692822265625,1.0341941118240356,-0.646905779838562,1.1209368705749512
1667255160703407400,0.029407470703125,1.043357014656067,-0.6780598759651184,1.1850776672363281
1667255160705886700,0.03188671875,1.0299180746078491,-0.7153226733207703,1.2516618967056274
1667255160708365800,0.03436572265625,0.998153030872345,-0.7696896195411682,1.3194679021835327
1667255160710845200,0.03684521484375,0.9596685767173767,-0.8484911918640137,1.3829978704452515
1667255160713324500,0.039324462890625,0.9120211005210876,-0.9462295174598694,1.4489712715148926
1667255160715803600,0.0418037109375,0.8643736839294434,-1.0580178499221802,1.5137228965759277
1667255160718283000,0.044282958984375,0.8155044913291931,-1.174692988395691,1.5790854692459106
1667255160720762400,0.046762451171875,0.7703005075454712,-1.3023637533187866,1.6420044898986816
1667255160723241500,0.049241455078125,0.7312051653862,-1.4440842866897583,1.7055344581604004
1667255160725720800,0.051720947265625,0.7012727856636047,-1.5845832824707031,1.7708970308303833
1667255160728200000,0.054199951171875,0.685390293598175,-1.729358196258545,1.833205223083496
1667255160730679300,0.05667919921875,0.6823359727859497,-1.8729114532470703,1.8985676765441895
1667255160733158700,0.05915869140625,0.6896663308143616,-2.011577606201172,1.9633194208145142
1667255160735637800,0.0616376953125,0.7073814272880554,-2.151465654373169,2.0305144786834717
1667255160738117000,0.0641171875,0.7336485981941223,-2.2925755977630615,2.092211961746216
1667255160740596200,0.06659619140625,0.7660244107246399,-2.433685302734375,2.151465654373169
1667255160743075600,0.06907568359375,0.8057306408882141,-2.587623119354248,2.210108757019043
1667255160745555000,0.071554931640625,0.8497129082679749,-2.8063127994537354,2.2589778900146484
1667255160748034000,0.074033935546875,0.8979712128639221,-3.1331255435943604,2.288910388946533
1667255160750513400,0.076513427734375,0.9321796298027039,-3.4135124683380127,2.3121232986450195
1667255160752992800,0.07899267578125,0.943786084651947,-3.612654209136963,2.344499111175537
1667255160755472000,0.081471923828125,0.9224058389663696,-3.8264570236206055,2.371987819671631
1667255160757951200,0.083951171875,0.8759800791740417,-4.021322727203369,2.395200729370117
1667255160760430300,0.086430419921875,0.7904590368270874,-4.1312785148620605,2.413526773452759
1667255160762909700,0.08890966796875,0.6713404059410095,-4.155102252960205,2.434296131134033
1667255160765389000,0.09138916015625,0.5131264328956604,-4.072024822235107,2.4520111083984375
1667255160767868200,0.0938681640625,0.318871408700943,-3.8490588665008545,2.464839458465576
1667255160770347500,0.096347412109375,0.1026252806186676,-3.464824914932251,2.472780704498291
1667255160772827000,0.098826904296875,-0.11972949653863907,-2.955974578857422,2.4654502868652344
1667255160775306000,0.101305908203125,-0.32620179653167725,-2.3542728424072266,2.431241750717163
1667255160777785300,0.103785400390625,-0.48075059056282043,-1.7067562341690063,2.358548879623413
1667255160780264400,0.106264404296875,-0.5479456782341003,-1.1068869829177856,2.2314889430999756
1667255160782743800,0.108743896484375,-0.5192350745201111,-0.6322450637817383,2.045786142349243
1667255160785223200,0.11122314453125,-0.39889469742774963,-0.2877173125743866,1.8044945001602173
1667255160787702300,0.113702392578125,-0.21380266547203064,-0.0409279391169548,1.5234967470169067
1667255160790181600,0.116181640625,0.001832594396546483,0.1490510106086731,1.2119556665420532
1667255160792660700,0.11866064453125,0.21258094906806946,0.31520622968673706,0.8900299668312073
1667255160795140000,0.12114013671875,0.39400777220726013,0.4776962697505951,0.5760455131530762
1667255160797619500,0.123619384765625,0.5247328281402588,0.6524035930633545,0.2877173125743866
1667255160800098600,0.1260986328125,0.6017017960548401,0.8436042666435242,0.03481929376721382
1667255160802578000,0.128577880859375,0.6267472505569458,1.043357014656067,-0.17898337543010712
1667255160805057300,0.131057373046875,0.6084213256835938,1.250440239906311,-0.35246896743774414
1667255160807536400,0.133536376953125,0.5607738494873047,1.4489712715148926,-0.4886918365955353
1667255160810015700,0.136015625,0.4984656572341919,1.619402527809143,-0.5974257588386536
1667255160812494800,0.138494873046875,0.42455101013183594,1.757457971572876,-0.6792816519737244
1667255160814974200,0.14097412109375,0.35185810923576355,1.8643592596054077,-0.740368127822876
1667255160817453600,0.14345361328125,0.2883281707763672,1.944993495941162,-0.7825177907943726
1667255160819932700,0.1459326171875,0.23823726177215576,1.99936044216156,-0.8063415288925171
1667255160822412000,0.148412109375,0.2052505612373352,2.0329580307006836,-0.8179479241371155
1667255160824891100,0.15089111328125,0.18753549456596375,2.051283836364746,-0.8222240209579468
1667255160827370500,0.15337060546875,0.18081597983837128,2.059225082397461,-0.813671886920929
1667255160829849900,0.155849853515625,0.17898337543010712,2.064723014831543,-0.80389803647995
1667255160832329000,0.158328857421875,0.17776164412498474,2.0830488204956055,-0.7965676784515381
1667255160834808300,0.160808349609375,0.17287473380565643,2.1166465282440186,-0.7953459620475769
1667255160837287700,0.16328759765625,0.16187916696071625,2.174067735671997,-0.8069523572921753
1667255160839766800,0.165766845703125,0.14599667489528656,2.2443172931671143,-0.831997811794281
1667255160842246100,0.16824609375,0.12400554865598679,2.3286166191101074,-0.8655954003334045
1667255160844725200,0.170725341796875,0.09468404203653336,2.41963529586792,-0.915075421333313
1667255160847204600,0.17320458984375,0.05864302068948746,2.4972152709960938,-0.9694424271583557
1667255160849684000,0.17568408203125,0.0256563201546669,2.5356996059417725,-1.0195332765579224
1667255160852163000,0.1781630859375,-0.0054977829568088055,2.582125425338745,-1.0690133571624756
1667255160854642400,0.180642333984375,-0.029932374134659767,2.6389358043670654,-1.1264346837997437
1667255160857121800,0.183121826171875,-0.0513126403093338,2.6871941089630127,-1.1814124584197998
1667255160859601000,0.185600830078125,-0.07452550530433655,2.7262895107269287,-1.230892539024353
1667255160862080300,0.188080322265625,-0.1026252806186676,2.752556800842285,-1.276707410812378
1667255160864559400,0.190559326171875,-0.1337793916463852,2.7623305320739746,-1.313359260559082
1667255160867038700,0.193038818359375,-0.1698204129934311,2.7562217712402344,-1.3353503942489624
1667255160869518000,0.19551806640625,-0.2052505612373352,2.723845958709717,-1.3439024686813354
1667255160871997200,0.1979970703125,-0.24006985127925873,2.663370370864868,-1.3377938270568848
1667255160874476500,0.2004765625,-0.2718348205089569,2.5754058361053467,-1.3139700889587402
1667255160876956000,0.202955810546875,-0.2993237376213074,2.456287384033203,-1.2718204259872437
1667255160879435000,0.20543505859375,-0.32192572951316833,2.308458089828491,-1.212566614151001
1667255160881914400,0.207914306640625,-0.3396408259868622,2.1416919231414795,-1.1349867582321167
1667255160884393500,0.2103935546875,-0.35063639283180237,1.951712965965271,-1.0396918058395386
1667255160886872800,0.212872802734375,-0.3549124300479889,1.748905897140503,-0.9327905178070068
1667255160889352200,0.215352294921875,-0.35735589265823364,1.543655276298523,-0.8124501705169678
1667255160891831300,0.217831298828125,-0.3591884970664978,1.3402373790740967,-0.6829468011856079
1667255160894310700,0.220310546875,-0.360410213470459,1.1465932130813599,-0.5479456782341003
1667255160896790000,0.2227900390625,-0.36285367608070374,0.9615011811256409,-0.4111120104789734
1667255160899269000,0.22526904296875,-0.3652971386909485,0.7819069027900696,-0.27550002932548523
1667255160901748500,0.22774853515625,-0.3652971386909485,0.6114756464958191,-0.1441640853881836
1667255160904227600,0.2302275390625,-0.3597993552684784,0.4557051360607147,-0.021991131827235222
1667255160906707000,0.23270703125,-0.35063639283180237,0.31031930446624756,0.0922405794262886
1667255160909186300,0.235186279296875,-0.3384190797805786,0.17287473380565643,0.1905898153781891
1667255160911665400,0.23766552734375,-0.32559093832969666,0.046425722539424896,0.2767217457294464
1667255160914144800,0.240144775390625,-0.30970844626426697,-0.06352993845939636,0.347582072019577
1667255160916624100,0.2426240234375,-0.29565855860710144,-0.15821397304534912,0.40317076444625854
1667255160919103200,0.245103271484375,-0.2834412455558777,-0.23945899307727814,0.4404335021972656
1667255160921582600,0.24758251953125,-0.27488914132118225,-0.3090975880622864,0.4618137776851654
1667255160924061700,0.250061767578125,-0.2712239623069763,-0.36651885509490967,0.46914416551589966
1667255160926541000,0.252541015625,-0.2706131041049957,-0.41294458508491516,0.4630354940891266
1667255160929020400,0.2550205078125,-0.2718348205089569,-0.44959646463394165,0.44837474822998047
1667255160931499500,0.25749951171875,-0.27488914132118225,-0.4667007029056549,0.42394015192985535
1667255160933979000,0.259978759765625,-0.27977606654167175,-0.46486809849739075,0.3909534513950348
1667255160936458000,0.2624580078125,-0.2834412455558777,-0.44837474822998047,0.3536907136440277
1667255160938937300,0.264937255859375,-0.2883281707763672,-0.4221075773239136,0.31459537148475647
1667255160941416700,0.267416748046875,-0.2926042377948761,-0.38789913058280945,0.2712239623069763
1667255160943895800,0.269895751953125,-0.29565855860710144,-0.3481929302215576,0.22724169492721558
1667255160946375200,0.272375244140625,-0.29504770040512085,-0.3072649836540222,0.18264856934547424
1667255160948854300,0.274854248046875,-0.29138249158859253,-0.26450446248054504,0.14172062277793884
1667255160951333600,0.277333740234375,-0.27977606654167175,-0.22235478460788727,0.0977383628487587
1667255160953813000,0.27981298828125,-0.2632827162742615,-0.17226386070251465,0.05497783049941063
1667255160956292000,0.2822919921875,-0.2419024556875229,-0.11178825795650482,0.013439024798572063
1667255160958771500,0.284771484375,-0.21441353857517242,-0.043982263654470444,-0.02626718580722809
1667255160961250800,0.287250732421875,-0.18570289015769958,0.01954767294228077,-0.06597339361906052
1667255160963730000,0.28972998046875,-0.15210533142089844,0.07574722915887833,-0.10079269111156464
1667255160966209300,0.292209228515625,-0.1185077652335167,0.11728604137897491,-0.13622283935546875
1667255160968688400,0.2946884765625,-0.08429934084415436,0.14660754799842834,-0.16798780858516693
1667255160971167700,0.297167724609375,-0.05253437161445618,0.1637117564678192,-0.19425499439239502
1667255160973647000,0.299647216796875,-0.023212861269712448,0.17531819641590118,-0.21807873249053955
1667255160976126200,0.302126220703125,0.006719512399286032,0.1899789422750473,-0.23823726177215576
1667255160978605600,0.30460546875,0.03543015569448471,0.21441353857517242,-0.24984370172023773
1667255160981084700,0.307084716796875,0.06414080411195755,0.24862197041511536,-0.2608392536640167
1667255160983564000,0.30956396484375,0.08796452730894089,0.29077163338661194,-0.2724456787109375
1667255160986043400,0.31204345703125,0.11056652665138245,0.3335321843624115,-0.28405213356018066
1667255160988522500,0.3145224609375,0.12705987691879272,0.3811796307563782,-0.29993459582328796
1667255160991001900,0.317001953125,0.13988803327083588,0.4257727563381195,-0.3170388340950012
1667255160993481200,0.319481201171875,0.143553227186203,0.46425724029541016,-0.3396408259868622
1667255160995960300,0.321960205078125,0.14294235408306122,0.4923570156097412,-0.36835145950317383
1667255160998439700,0.324439697265625,0.13011419773101807,0.5082395076751709,-0.40378162264823914
1667255161000919000,0.3269189453125,0.11117739230394363,0.5192350745201111,-0.43921178579330444
1667255161003398100,0.329398193359375,0.08674279600381851,0.5332849621772766,-0.47464191913604736
1667255161005877500,0.33187744140625,0.06230820715427399,0.546113133430481,-0.5021308660507202
1667255161008356600,0.334356689453125,0.034208428114652634,0.5503891706466675,-0.5216785073280334
1667255161010836000,0.3368359375,0.004276053514331579,0.5601630210876465,-0.5351175665855408
1667255161013315300,0.3393154296875,-0.02871064469218254,0.5595521330833435,-0.5400044918060303
1667255161015794400,0.34179443359375,-0.06291907280683517,0.5418370366096497,-0.5369501113891602
1667255161018273800,0.344273681640625,-0.1026252806186676,0.5283980369567871,-0.5271763205528259
1667255161020753200,0.346753173828125,-0.14477495849132538,0.5119046568870544,-0.5057960152626038
1667255161023232300,0.349232177734375,-0.18631376326084137,0.4886918365955353,-0.4740310609340668
1667255161025711600,0.351711669921875,-0.22663083672523499,0.4416552484035492,-0.4422661066055298
1667255161028190700,0.354190673828125,-0.2675587832927704,0.3854556679725647,-0.4001164436340332
1667255161030670000,0.356670166015625,-0.3090975880622864,0.32009315490722656,-0.35674503445625305
1667255161033149400,0.3591494140625,-0.34697118401527405,0.24740023910999298,-0.31154105067253113
1667255161035628500,0.361628662109375,-0.3854556679725647,0.17165300250053406,-0.26022839546203613
1667255161038108000,0.36410791015625,-0.4221075773239136,0.10079269111156464,-0.20830489695072174
1667255161040587000,0.3665869140625,-0.45875945687294006,0.036651886999607086,-0.15577052533626556
1667255161043066400,0.36906640625,-0.49480047821998596,-0.03543015569448471,-0.09834922850131989
1667255161045545700,0.371545654296875,-0.5290089249610901,-0.11606431007385254,-0.04459312930703163
1667255161048024800,0.37402490234375,-0.5589412450790405,-0.2003636509180069,0.010384701192378998
1667255161050504200,0.376504150390625,-0.5864301919937134,-0.2718348205089569,0.07086031138896942
1667255161052983600,0.378983642578125,-0.6047561168670654,-0.34147340059280396,0.13194678723812103
1667255161055462700,0.381462646484375,-0.6194168925285339,-0.41355544328689575,0.19181154668331146
1667255161057942000,0.38394189453125,-0.6243038177490234,-0.4862483739852905,0.2528980076313019
1667255161060421000,0.386421142578125,-0.627968966960907,-0.5589412450790405,0.3121519088745117
1667255161062900500,0.388900390625,-0.6298015713691711,-0.6316341757774353,0.37201663851737976
1667255161065379800,0.3913798828125,-0.6291907429695129,-0.7024945020675659,0.43310311436653137
1667255161067859000,0.39385888671875,-0.6261364221572876,-0.7605266571044922,0.49418962001800537
1667255161070338300,0.39633837890625,-0.6139190793037415,-0.8087849617004395,0.5564978122711182
1667255161072817400,0.3988173828125,-0.593149721622467,-0.8539889454841614,0.6090322136878967
1667255161075296800,0.401296875,-0.5681042671203613,-0.896138608455658,0.6536253094673157
1667255161077776100,0.403776123046875,-0.5345066785812378,-0.9407317638397217,0.6902772188186646
1667255161080255200,0.406255126953125,-0.5009090900421143,-0.9883792400360107,0.7171552777290344
1667255161082734600,0.408734619140625,-0.46608981490135193,-1.0341941118240356,0.7281508445739746
1667255161085213700,0.411213623046875,-0.43371400237083435,-1.0806198120117188,0.7330377101898193
1667255161087693000,0.413693115234375,-0.40378162264823914,-1.1166608333587646,0.7257073521614075
1667255161090172400,0.41617236328125,-0.37201663851737976,-1.1380411386489868,0.7159335017204285
1667255161092651500,0.418651611328125,-0.3402516841888428,-1.148425817489624,0.6957749724388123
1667255161095131000,0.421130859375,-0.3066541254520416,-1.1490366458892822,0.6682860851287842
1667255161097610200,0.4236103515625,-0.268169641494751,-1.1435388326644897,0.6371319890022278
1667255161100089300,0.42608935546875,-0.22357651591300964,-1.1325433254241943,0.5998691916465759
1667255161102568700,0.428568603515625,-0.1740964651107788,-1.1227694749832153,0.5571087002754211
1667255161105047800,0.4310478515625,-0.1233946830034256,-1.1129956245422363,0.5155698657035828
1667255161107527200,0.433527099609375,-0.07147117704153061,-1.100778341293335,0.47464191913604736
1667255161110006500,0.436006591796875,-0.025045456364750862,-1.0873392820358276,0.4373791813850403
1667255161112485600,0.438485595703125,0.014660755172371864,-1.0702351331710815,0.40744680166244507
1667255161114965000,0.440965087890625,0.04886918142437935,-1.045189619064331,0.3805687427520752
1667255161117444400,0.4434443359375,0.07574722915887833,-1.0274745225906372,0.3591884970664978
1667255161119923500,0.44592333984375,0.09834922850131989,-1.0207550525665283,0.3433060050010681
1667255161122402800,0.44840283203125,0.11178825795650482,-1.026863694190979,0.3329212963581085
1667255161124882000,0.4508818359375,0.11728604137897491,-1.0372483730316162,0.32681265473365784
1667255161127361300,0.453361328125,0.11239911615848541,-1.0396918058395386,0.3335321843624115
1667255161129840600,0.455840576171875,0.09957095980644226,-1.0341941118240356,0.3451386094093323
1667255161132319700,0.45831982421875,0.08063415437936783,-1.035415768623352,0.3543015718460083
1667255161134799000,0.460799072265625,0.056199558079242706,-1.026863694190979,0.36224281787872314
1667255161137278500,0.463278564453125,0.020769402384757996,-0.9877683520317078,0.3756818473339081
1667255161139757600,0.465757568359375,-0.03176496922969818,-0.9199623465538025,0.39339691400527954
1667255161142237000,0.46823681640625,-0.09590577334165573,-0.8478803038597107,0.41416633129119873
1667255161144716000,0.470716064453125,-0.16737695038318634,-0.7977893948554993,0.4324922561645508
1667255161147195400,0.4731953125,-0.235793799161911,-0.7715222239494324,0.45020735263824463
1667255161149674800,0.4756748046875,-0.29077163338661194,-0.7605266571044922,0.46608981490135193
1667255161152153900,0.47815380859375,-0.3243691921234131,-0.7525854110717773,0.4789179861545563
1667255161154633200,0.48063330078125,-0.337808221578598,-0.7391464114189148,0.48563748598098755
1667255161157112600,0.483112548828125,-0.3335321843624115,-0.7171552777290344,0.4868592321872711
1667255161159591700,0.485591796875,-0.3127627670764923,-0.6914989352226257,0.4825831651687622
1667255161162071000,0.488071044921875,-0.287106454372406,-0.6609556674957275,0.4740310609340668
1667255161164550100,0.490550048828125,-0.258395791053772,-0.6267472505569458,0.46059203147888184
1667255161167029500,0.493029541015625,-0.23335035145282745,-0.5962040424346924,0.44837474822998047
1667255161169508900,0.4955087890625,-0.21258094906806946,-0.573602020740509,0.4361574649810791
1667255161171988000,0.497988037109375,-0.1948658674955368,-0.5613847374916077,0.4276053309440613
1667255161174467300,0.50046728515625,-0.17837251722812653,-0.5589412450790405,0.4221075773239136
1667255161176946400,0.502946533203125,-0.1594357043504715,-0.5626064538955688,0.41844236850738525
1667255161179425800,0.50542578125,-0.1386663019657135,-0.5668824911117554,0.41294458508491516
1667255161181905200,0.5079052734375,-0.11667517572641373,-0.5717694163322449,0.411722868680954
1667255161184384300,0.51038427734375,-0.08857539296150208,-0.5766563415527344,0.4068359434604645
1667255161186863600,0.512863525390625,-0.0616973415017128,-0.5619956254959106,0.4056142270565033
1667255161189342700,0.5153427734375,-0.03909534588456154,-0.5198459029197693,0.4159989058971405
1667255161191822000,0.517822021484375,-0.02260199747979641,-0.4508182108402252,0.43432486057281494
1667255161194301400,0.520301513671875,-0.01588248461484909,-0.36163195967674255,0.4575377106666565
1667255161196780500,0.522780517578125,-0.01588248461484909,-0.268169641494751,0.4862483739852905
1667255161199260000,0.525260009765625,-0.021991131827235222,-0.17715078592300415,0.5161807537078857
1667255161201739300,0.5277392578125,-0.02626718580722809,-0.09468404203653336,0.545502245426178
1667255161204218400,0.53021826171875,-0.033597562462091446,-0.0256563201546669,0.5699368119239807
1667255161206697700,0.53269775390625,-0.03787361457943916,0.029932374134659767,0.5882627964019775
1667255161209176800,0.5351767578125,-0.04581485688686371,0.07269290834665298,0.6017017960548401
1667255161211656200,0.53765625,-0.05253437161445618,0.10629047453403473,0.6090322136878967
1667255161214135600,0.540135498046875,-0.0665842592716217,0.13439024984836578,0.6065887212753296
1667255161216614700,0.54261474609375,-0.08124501258134842,0.15821397304534912,0.6017017960548401
1667255161219094000,0.545093994140625,-0.10323614627122879,0.15577052533626556,0.5968148708343506
1667255161221573000,0.547572998046875,-0.11362084746360779,0.08124501258134842,0.6096430420875549
1667255161224052500,0.550052490234375,-0.11728604137897491,0.03848448023200035,0.6133082509040833
1667255161226531800,0.55253173828125,-0.12278381735086441,0.025045456364750862,0.6029235124588013
1667255161229011000,0.555010986328125,-0.1386663019657135,0.004886918235570192,0.5900954008102417
1667255161231490300,0.557490234375,-0.16676609218120575,-0.015271619893610477,0.5754346251487732
1667255161233969700,0.5599697265625,-0.205861434340477,-0.0360410213470459,0.5601630210876465
1667255161236448800,0.56244873046875,-0.2522871494293213,-0.06291907280683517,0.5503891706466675
1667255161238928100,0.56492822265625,-0.2968802750110626,-0.10384701192378998,0.5412262082099915
1667255161241407200,0.5674072265625,-0.33597561717033386,-0.1594357043504715,0.5418370366096497
1667255161243886600,0.569886474609375,-0.3659079968929291,-0.22785256803035736,0.5473348498344421
1667255161246366000,0.572365966796875,-0.3854556679725647,-0.2968802750110626,0.5558869242668152
1667255161248845000,0.574844970703125,-0.39767298102378845,-0.36163195967674255,0.5711585879325867
1667255161251324400,0.577324462890625,-0.40317076444625854,-0.4172206521034241,0.5882627964019775
1667255161253803800,0.5798037109375,-0.39889469742774963,-0.462424635887146,0.6084213256835938
1667255161256283000,0.582282958984375,-0.39278605580329895,-0.49663305282592773,0.6322450637817383
1667255161258762200,0.58476220703125,-0.3842339515686035,-0.5155698657035828,0.6542361974716187
1667255161261241300,0.587241455078125,-0.3756818473339081,-0.5253437161445618,0.6786707639694214
1667255161263720700,0.589720703125,-0.36712974309921265,-0.535728394985199,0.7079922556877136
1667255161266200000,0.592199951171875,-0.3585776388645172,-0.5485565662384033,0.7336485981941223
1667255161268679200,0.59467919921875,-0.3488037884235382,-0.5668824911117554,0.758694052696228
1667255161271158500,0.597158447265625,-0.337808221578598,-0.5907062292098999,0.7800742983818054
1667255161273638000,0.599637939453125,-0.3237583339214325,-0.618806004524231,0.7953459620475769
1667255161276117000,0.602116943359375,-0.31031930446624756,-0.646905779838562,0.813060998916626
1667255161278596400,0.604596435546875,-0.287106454372406,-0.6786707639694214,0.8252783417701721
1667255161281075500,0.607075439453125,-0.2663370370864868,-0.711046576499939,0.8374956250190735
1667255161283554800,0.609554931640625,-0.24312418699264526,-0.7409789562225342,0.8521563410758972
1667255161286034200,0.6120341796875,-0.22174391150474548,-0.768467903137207,0.8662062287330627
1667255161288513300,0.61451318359375,-0.1997527778148651,-0.7971785664558411,0.8772017955780029
1667255161290992600,0.61699267578125,-0.18203771114349365,-0.8271108865737915,0.8869756460189819
1667255161293471700,0.6194716796875,-0.1692095398902893,-0.861319363117218,0.8949168920516968
1667255161295951000,0.621951171875,-0.15515965223312378,-0.9034690260887146,0.9016364216804504
1667255161298430500,0.624430419921875,-0.13988803327083588,-0.9743293523788452,0.9132428169250488
1667255161300909600,0.62690966796875,-0.11667517572641373,-1.0879502296447754,0.9352339506149292
1667255161303389000,0.629388916015625,-0.08857539296150208,-1.1716386079788208,0.952949047088623
1667255161305868000,0.631867919921875,-0.05864302068948746,-1.2412772178649902,0.9602794051170349
1667255161308347400,0.634347412109375,-0.02626718580722809,-1.320078730583191,0.9608902931213379
1667255161310826800,0.63682666015625,0.01588248461484909,-1.4013237953186035,0.953559935092926
1667255161313305900,0.639305908203125,0.04825831577181816,-1.4563016891479492,0.9480621218681335
1667255161315785200,0.64178515625,0.07452550530433655,-1.4837905168533325,0.9480621218681335
1667255161318264600,0.6442646484375,0.09162971377372742,-1.4917317628860474,0.9517273306846619
1667255161320743700,0.64674365234375,0.10445787757635117,-1.4935643672943115,0.9560033679008484
1667255161323223000,0.64922314453125,0.10934479534626007,-1.4856231212615967,0.962722897529602
1667255161325702100,0.6517021484375,0.11484257876873016,-1.4740166664123535,0.972496747970581
1667255161328181500,0.654181396484375,0.11606431007385254,-1.4636319875717163,0.9834923148155212
1667255161330660900,0.656660888671875,0.11728604137897491,-1.4581341743469238,0.9920443892478943
1667255161333140000,0.659139892578125,0.12095122784376144,-1.4624103307724,0.9993748068809509
1667255161335619300,0.661619384765625,0.1288924664258957,-1.4721840620040894,1.0054833889007568
1667255161338098400,0.664098388671875,0.13927717506885529,-1.4813470840454102,1.0097594261169434
1667255161340577800,0.666577880859375,0.15088360011577606,-1.4911209344863892,1.018311619758606
1667255161343057200,0.66905712890625,0.16554436087608337,-1.5027273893356323,1.0238093137741089
1667255161345536300,0.671536376953125,0.18142683804035187,-1.5112794637680054,1.0305289030075073
1667255161348015600,0.674015625,0.19914191961288452,-1.5216641426086426,1.0384701490402222
1667255161350495000,0.676494873046875,0.2156352698802948,-1.5289945602416992,1.0500766038894653
1667255161352974000,0.67897412109375,0.23029601573944092,-1.533881425857544,1.0598503351211548
1667255161355453400,0.681453369140625,0.24434591829776764,-1.5320488214492798,1.0720677375793457
1667255161357932500,0.6839326171875,0.25473061203956604,-1.528383731842041,1.084285020828247
1667255161360412000,0.686411865234375,0.26511532068252563,-1.518609881401062,1.0983349084854126
1667255161362891300,0.688891357421875,0.2706131041049957,-1.5082250833511353,1.1111630201339722
1667255161365370400,0.691370361328125,0.27550002932548523,-1.4935643672943115,1.125823736190796
1667255161367849700,0.693849609375,0.27550002932548523,-1.4691298007965088,1.1417062282562256
1667255161370329000,0.6963291015625,0.27488914132118225,-1.433699607849121,1.1533126831054688
1667255161372808200,0.69880810546875,0.27000224590301514,-1.3817760944366455,1.1630865335464478
1667255161375287600,0.70128759765625,0.2614501118659973,-1.313359260559082,1.1710277795791626
1667255161377766700,0.7037666015625,0.2516762912273407,-1.2302817106246948,1.1722495555877686
1667255161380246000,0.70624609375,0.23762640357017517,-1.1343759298324585,1.1704169511795044
1667255161382725400,0.708725341796875,0.2254091054201126,-1.0341941118240356,1.1630865335464478
1667255161385204500,0.71120458984375,0.20647229254245758,-0.9303470849990845,1.1465932130813599
1667255161387683800,0.713683837890625,0.18753549456596375,-0.8283326625823975,1.120326042175293
1667255161390163000,0.716162841796875,0.16737695038318634,-0.7293725609779358,1.0855066776275635
1667255161392642300,0.718642333984375,0.143553227186203,-0.6420188546180725,1.0390809774398804
1667255161395121700,0.72112158203125,0.12034036219120026,-0.5662716627120972,0.9804379940032959
1667255161397600800,0.723600830078125,0.0977383628487587,-0.5051851868629456,0.9193515181541443
1667255161400080100,0.726080078125,0.07819069176912308,-0.45875945687294006,0.8539889454841614
1667255161402559500,0.7285595703125,0.06047561392188072,-0.4202749729156494,0.7867938280105591
1667255161405038600,0.73103857421875,0.04825831577181816,-0.38667741417884827,0.7226530313491821
1667255161407518000,0.73351806640625,0.03909534588456154,-0.35674503445625305,0.6603448390960693
1667255161409997000,0.7359970703125,0.02932151034474373,-0.33108872175216675,0.6004800796508789
1667255161412476400,0.738476318359375,0.021380268037319183,-0.3090975880622864,0.5473348498344421
1667255161414955800,0.740955810546875,0.01282816007733345,-0.29138249158859253,0.49663305282592773
1667255161417435000,0.743434814453125,0.001221729558892548,-0.27855435013771057,0.45509424805641174
1667255161419914200,0.745914306640625,-0.010995565913617611,-0.2706131041049957,0.4196641147136688
1667255161422393300,0.748393310546875,-0.028099779039621353,-0.26878049969673157,0.3909534513950348
1667255161424872700,0.750872802734375,-0.04764745384454727,-0.2718348205089569,0.36774060130119324
1667255161427352000,0.75335205078125,-0.07024945318698883,-0.2761108875274658,0.3500255048274994
1667255161429831200,0.7558310546875,-0.09651663154363632,-0.28405213356018066,0.337808221578598
1667255161432310500,0.758310546875,-0.11972949653863907,-0.2919933497905731,0.3274235129356384
1667255161434789600,0.76078955078125,-0.14660754799842834,-0.2981020212173462,0.32070401310920715
1667255161437269000,0.76326904296875,-0.1692095398902893,-0.29504770040512085,0.3121519088745117
1667255161439748400,0.765748291015625,-0.1899789422750473,-0.28588470816612244,0.30604326725006104
1667255161442227500,0.7682275390625,-0.2052505612373352,-0.2761108875274658,0.3017672002315521
1667255161444706800,0.770706787109375,-0.21685700118541718,-0.2669478952884674,0.29565855860710144
1667255161447186200,0.773186279296875,-0.2211330533027649,-0.2614501118659973,0.29077163338661194
1667255161449665300,0.775665283203125,-0.2211330533027649,-0.258395791053772,0.2877173125743866
1667255161452144600,0.77814453125,-0.21380266547203064,-0.26022839546203613,0.28466299176216125
1667255161454623700,0.780623779296875,-0.20158538222312927,-0.26389357447624207,0.28405213356018066
1667255161457103000,0.78310302734375,-0.1893680840730667,-0.2663370370864868,0.2809978127479553
1667255161459582500,0.78558251953125,-0.1802051067352295,-0.26511532068252563,0.2816086709499359
1667255161462061600,0.7880615234375,-0.1740964651107788,-0.2669478952884674,0.2816086709499359
1667255161464541000,0.790541015625,-0.17043127119541168,-0.2663370370864868,0.2828303873538971
1667255161467020300,0.793020263671875,-0.17348559200763702,-0.26878049969673157,0.28405213356018066
1667255161469499400,0.79549951171875,-0.1795942485332489,-0.2718348205089569,0.28405213356018066
1667255161471978800,0.797978759765625,-0.18814635276794434,-0.27855435013771057,0.27855435013771057
1667255161474457900,0.800457763671875,-0.2003636509180069,-0.28954991698265076,0.27488914132118225
1667255161476937200,0.802937255859375,-0.2107483446598053,-0.3023780584335327,0.26939135789871216
1667255161479416600,0.80541650390625,-0.22357651591300964,-0.32620179653167725,0.26022839546203613
1667255161481895700,0.807895751953125,-0.23212862014770508,-0.35796675086021423,0.25473061203956604
1667255161484375000,0.810375,-0.23945899307727814,-0.39339691400527954,0.24801109731197357
1667255161486854400,0.8128544921875,-0.24495677649974823,-0.4355465769767761,0.23884813487529755
1667255161489333500,0.81533349609375,-0.24984370172023773,-0.4819723069667816,0.23212862014770508
1667255161491812900,0.817812744140625,-0.2510654330253601,-0.5332849621772766,0.2260199636220932
1667255161494292000,0.8202919921875,-0.2510654330253601,-0.5870410799980164,0.22174391150474548
1667255161496771300,0.822771240234375,-0.2467893660068512,-0.6371319890022278,0.2205221801996231
1667255161499250700,0.825250732421875,-0.235793799161911,-0.6817250847816467,0.22357651591300964
1667255161501729800,0.827729736328125,-0.22418737411499023,-0.7183769941329956,0.2309068888425827
1667255161504209200,0.830209228515625,-0.21135921776294708,-0.7470875978469849,0.23945899307727814
1667255161506688300,0.832688232421875,-0.2009745091199875,-0.768467903137207,0.2522871494293213
1667255161509167600,0.835167724609375,-0.18875721096992493,-0.7843503952026367,0.26511532068252563
1667255161511647000,0.83764697265625,-0.17715078592300415,-0.7965676784515381,0.2809978127479553
1667255161514126000,0.8401259765625,-0.1692095398902893,-0.8051197528839111,0.29993459582328796
1667255161516605400,0.84260546875,-0.16065743565559387,-0.8100066781044006,0.3182605504989624
1667255161519084500,0.84508447265625,-0.1533270627260208,-0.8087849617004395,0.3384190797805786
1667255161521564000,0.84756396484375,-0.14538581669330597,-0.8020654320716858,0.3610210716724396
1667255161524043300,0.850043212890625,-0.13988803327083588,-0.7953459620475769,0.38301220536231995
1667255161526522400,0.8525224609375,-0.13622283935546875,-0.7886264324188232,0.40378162264823914
1667255161529001700,0.855001708984375,-0.1331685185432434,-0.7812960743904114,0.4269944727420807
1667255161531480800,0.857480712890625,-0.12950333952903748,-0.7715222239494324,0.4471530318260193
1667255161533960200,0.859960205078125,-0.12522727251052856,-0.7538071274757385,0.46608981490135193
1667255161536439600,0.862439453125,-0.12034036219120026,-0.7293725609779358,0.48075059056282043
1667255161538918700,0.864918701171875,-0.11423171311616898,-0.7018836140632629,0.4880809485912323
1667255161541398000,0.86739794921875,-0.1081230640411377,-0.675616443157196,0.4929678738117218
1667255161543877400,0.86987744140625,-0.10323614627122879,-0.6487383842468262,0.4880809485912323
1667255161546356500,0.8723564453125,-0.09834922850131989,-0.6261364221572876,0.47952884435653687
1667255161548835800,0.8748359375,-0.09651663154363632,-0.6108647584915161,0.46425724029541016
1667255161551315000,0.87731494140625,-0.0977383628487587,-0.6029235124588013,0.44409868121147156
1667255161553794300,0.879794189453125,-0.10018182545900345,-0.6059778332710266,0.4159989058971405
1667255161556273700,0.882273681640625,-0.10445787757635117,-0.6163625717163086,0.38728827238082886
1667255161558752800,0.884752685546875,-0.10995566099882126,-0.6340776681900024,0.3543015718460083
1667255161561232100,0.887232177734375,-0.1185077652335167,-0.657290518283844,0.32009315490722656
1667255161563711500,0.88971142578125,-0.12705987691879272,-0.6805033683776855,0.2822195291519165
1667255161566190600,0.892190673828125,-0.13744457066059113,-0.7006618976593018,0.24801109731197357
1667255161568670000,0.894669921875,-0.14599667489528656,-0.7189878225326538,0.2101374864578247
1667255161571149000,0.897149169921875,-0.15515965223312378,-0.7348703145980835,0.17592905461788177
1667255161573628400,0.89962841796875,-0.16310089826583862,-0.748920202255249,0.14599667489528656
1667255161576107800,0.902107666015625,-0.16737695038318634,-0.7617483735084534,0.1178968995809555
1667255161578587000,0.9045869140625,-0.164322629570961,-0.7751874327659607,0.09040798991918564
1667255161581066200,0.907066162109375,-0.15699224174022675,-0.7825177907943726,0.06291907280683517
1667255161583545600,0.909545654296875,-0.14721840620040894,-0.7843503952026367,0.0409279391169548
1667255161586024700,0.912024658203125,-0.13500112295150757,-0.7788525819778442,0.01954767294228077
1667255161588504000,0.914504150390625,-0.12400554865598679,-0.7709113359451294,0
1667255161590983200,0.916983154296875,-0.11606431007385254,-0.759304940700531,-0.015271619893610477
1667255161593462500,0.919462646484375,-0.1081230640411377,-0.7434224486351013,-0.02871064469218254
1667255161595942000,0.92194189453125,-0.10629047453403473,-0.721431314945221,-0.040317077189683914
1667255161598421000,0.9244208984375,-0.10445787757635117,-0.6957749724388123,-0.0513126403093338
1667255161600900400,0.926900390625,-0.10995566099882126,-0.6725621223449707,-0.0616973415017128
1667255161603379500,0.92937939453125,-0.11667517572641373,-0.6505709886550903,-0.06780599057674408
1667255161605858800,0.93185888671875,-0.12522727251052856,-0.627968966960907,-0.07269290834665298
1667255161608338200,0.934338134765625,-0.13255766034126282,-0.6096430420875549,-0.07757982611656189
1667255161610817300,0.9368173828125,-0.13988803327083588,-0.593149721622467,-0.08063415437936783
1667255161613296600,0.939296630859375,-0.14172062277793884,-0.5754346251487732,-0.08368847519159317
1667255161615775700,0.941775634765625,-0.13683371245861053,-0.5540543794631958,-0.08796452730894089
1667255161618255000,0.944255126953125,-0.12522727251052856,-0.544891357421875,-0.08796452730894089
1667255161620734500,0.946734375,-0.11056652665138245,-0.536339282989502,-0.08613193035125732
1667255161623213600,0.949213623046875,-0.09407317638397217,-0.5186241865158081,-0.08918625861406326
1667255161625693000,0.95169287109375,-0.07391463965177536,-0.5070177912712097,-0.09651663154363632
1667255161628172300,0.95417236328125,-0.053756099194288254,-0.5088503360748291,-0.1026252806186676
1667255161630651400,0.9566513671875,-0.033597562462091446,-0.5125155448913574,-0.1081230640411377
1667255161633130800,0.959130859375,-0.020769402384757996,-0.5198459029197693,-0.11423171311616898
1667255161635609900,0.96160986328125,-0.006108647678047419,-0.5259546041488647,-0.1185077652335167
1667255161638089200,0.964089111328125,0.004886918235570192,-0.5320632457733154,-0.12461641430854797
1667255161640568600,0.966568603515625,0.014049889519810677,-0.5351175665855408,-0.13194678723812103
1667255161643047700,0.969047607421875,0.021380268037319183,-0.5375609993934631,-0.13744457066059113
1667255161645527000,0.971527099609375,0.0256563201546669,-0.535728394985199,-0.14538581669330597
1667255161648006100,0.974006103515625,0.02626718580722809,-0.5320632457733154,-0.15271618962287903
1667255161650485500,0.976485595703125,0.02626718580722809,-0.5259546041488647,-0.16065743565559387
1667255161652964900,0.97896484375,0.017715077847242355,-0.5137372612953186,-0.17104214429855347
1667255161655444000,0.98144384765625,0.006719512399286032,-0.4923570156097412,-0.18203771114349365
1667255161657923300,0.98392333984375,-0.008552107028663158,-0.45998117327690125,-0.19425499439239502
1667255161660402400,0.98640234375,-0.02932151034474373,-0.41416633129119873,-0.20891575515270233
1667255161662881800,0.9888818359375,-0.05558869615197182,-0.35674503445625305,-0.2260199636220932
1667255161665361200,0.991361083984375,-0.08368847519159317,-0.287106454372406,-0.24434591829776764
1667255161667840300,0.99384033203125,-0.11972949653863907,-0.20891575515270233,-0.26450446248054504
1667255161670319600,0.996319580078125,-0.15699224174022675,-0.12583814561367035,-0.2877173125743866
1667255161672799000,0.998799072265625,-0.19792018830776215,-0.039706211537122726,-0.31154105067253113
1667255161675278000,1.001278076171875,-0.24006985127925873,0.047036588191986084,-0.3384190797805786
1667255161677757400,1.00375732421875,-0.2809978127479553,0.13011419773101807,-0.36712974309921265
1667255161680236800,1.00623681640625,-0.3182605504989624,0.20647229254245758,-0.3958403766155243
1667255161682716000,1.0087158203125,-0.35246896743774414,0.2761108875274658,-0.42455101013183594
1667255161685195300,1.0111953125,-0.3805687427520752,0.33231043815612793,-0.4581485986709595
1667255161687674400,1.01367431640625,-0.40255987644195557,0.37812530994415283,-0.4874700903892517
1667255161690153700,1.01615380859375,-0.41905322670936584,0.41233372688293457,-0.5174024701118469
1667255161692633000,1.018633056640625,-0.4318813979625702,0.430659681558609,-0.5442805290222168
1667255161695112200,1.0211123046875,-0.4410443603992462,0.4410443603992462,-0.5687150955200195
1667255161697591600,1.023591552734375,-0.44959646463394165,0.4422661066055298,-0.5888736248016357
1667255161700071000,1.02607080078125,-0.4557051360607147,0.43310311436653137,-0.6059778332710266
1667255161702550000,1.028550048828125,-0.45998117327690125,0.4166097939014435,-0.6157516837120056
1667255161705029400,1.031029296875,-0.46425724029541016,0.3946186602115631,-0.6224712133407593
1667255161707508500,1.033508544921875,-0.47036588191986084,0.36774060130119324,-0.627968966960907
1667255161709987800,1.03598779296875,-0.47525280714035034,0.3329212963581085,-0.6304124593734741
1667255161712467200,1.03846728515625,-0.4776962697505951,0.2938259541988373,-0.6273581385612488
1667255161714946300,1.0409462890625,-0.4783071279525757,0.2510654330253601,-0.6261364221572876
1667255161717425700,1.04342578125,-0.47586366534233093,0.20463970303535461,-0.6175842881202698
1667255161719904800,1.04590478515625,-0.471587598323822,0.15515965223312378,-0.6096430420875549
1667255161722384100,1.048384033203125,-0.46425724029541016,0.10140355676412582,-0.5955931544303894
1667255161724863500,1.050863525390625,-0.45448338985443115,0.043982263654470444,-0.5784889459609985
1667255161727342600,1.053342529296875,-0.44470956921577454,-0.01649334840476513,-0.5601630210876465
1667255161729822000,1.055822021484375,-0.4355465769767761,-0.07819069176912308,-0.5393936038017273
1667255161732301000,1.058301025390625,-0.4276053309440613,-0.14049890637397766,-0.5125155448913574
1667255161734780400,1.060780517578125,-0.41905322670936584,-0.20219624042510986,-0.4874700903892517
1667255161737259800,1.063259765625,-0.4098902642726898,-0.26022839546203613,-0.45875945687294006
1667255161739739000,1.06573876953125,-0.4007273018360138,-0.31459537148475647,-0.42882707715034485
1667255161742218200,1.06821826171875,-0.38850998878479004,-0.36163195967674255,-0.3964512348175049
1667255161744697600,1.070697509765625,-0.379347026348114,-0.4043924808502197,-0.3610210716724396
1667255161747176700,1.0731767578125,-0.370184063911438,-0.44348782300949097,-0.3237583339214325
1667255161749656000,1.075656005859375,-0.36285367608070374,-0.4770853817462921,-0.287106454372406
1667255161752135200,1.07813525390625,-0.3555232882499695,-0.5027416944503784,-0.24984370172023773
1667255161754614500,1.080614501953125,-0.3488037884235382,-0.5198459029197693,-0.2107483446598053
1667255161757094000,1.083093994140625,-0.34574946761131287,-0.5296197533607483,-0.17043127119541168
1667255161759573000,1.085572998046875,-0.3439168632030487,-0.5332849621772766,-0.13011419773101807
1667255161762052400,1.08805224609375,-0.3384190797805786,-0.5314523577690125,-0.0873536616563797
1667255161764531500,1.090531494140625,-0.3329212963581085,-0.5216785073280334,-0.047036588191986084
1667255161767010800,1.0930107421875,-0.3274235129356384,-0.5082395076751709,-0.0054977829568088055
1667255161769490200,1.095490234375,-0.3176496922969818,-0.4868592321872711,0.03543015569448471
1667255161771969300,1.09796923828125,-0.3066541254520416,-0.45998117327690125,0.07391463965177536
1667255161774448600,1.10044873046875,-0.29077163338661194,-0.42821621894836426,0.1130099818110466
1667255161776927700,1.102927734375,-0.27488914132118225,-0.3915643095970154,0.1496618688106537
1667255161779407000,1.105406982421875,-0.25411975383758545,-0.3530798554420471,0.18387030065059662
1667255161781886500,1.107886474609375,-0.23029601573944092,-0.3127627670764923,0.21746785938739777
1667255161784365600,1.110365478515625,-0.20402882993221283,-0.2712239623069763,0.24923282861709595
1667255161786845000,1.112844970703125,-0.17653992772102356,-0.23212862014770508,0.2767217457294464
1667255161789324300,1.11532421875,-0.14599667489528656,-0.19364413619041443,0.3042106628417969
1667255161791803400,1.117803466796875,-0.11728604137897491,-0.15699224174022675,0.3292561173439026
1667255161794282800,1.12028271484375,-0.0873536616563797,-0.12400554865598679,0.35185810923576355
1667255161796762000,1.12276220703125,-0.05925388261675835,-0.09162971377372742,0.37201663851737976
1667255161799241200,1.1252412109375,-0.033597562462091446,-0.06352993845939636,0.38850998878479004
1667255161801720600,1.127720458984375,-0.007941242307424545,-0.036651886999607086,0.4056142270565033
1667255161804199700,1.13019970703125,0.017104214057326317,-0.014049889519810677,0.42088583111763
1667255161806679000,1.132678955078125,0.03909534588456154,0.0054977829568088055,0.4324922561645508
1667255161809158400,1.135158447265625,0.059864748269319534,0.01954767294228077,0.4416552484035492
1667255161811637500,1.137637451171875,0.07880155742168427,0.025045456364750862,0.44898560643196106
1667255161814116900,1.140116943359375,0.09468404203653336,0.023212861269712448,0.44898560643196106
1667255161816596200,1.14259619140625,0.10873392969369888,0.013439024798572063,0.44470956921577454
1667255161819075300,1.145075439453125,0.12095122784376144,-0.002443459117785096,0.43493571877479553
1667255161821554700,1.1475546875,0.13194678723812103,-0.027488915249705315,0.42088583111763
1667255161824033800,1.15003369140625,0.13927717506885529,-0.05436696484684944,0.40317076444625854
1667255161826513200,1.15251318359375,0.14721840620040894,-0.0769689604640007,0.3860665261745453
1667255161828992500,1.154992431640625,0.15149445831775665,-0.09468404203653336,0.36774060130119324
1667255161831471600,1.1574716796875,0.15515965223312378,-0.10567960888147354,0.35185810923576355
1667255161833951000,1.159950927734375,0.15760311484336853,-0.11423171311616898,0.337808221578598
1667255161836430000,1.16243017578125,0.15638138353824615,-0.11545344442129135,0.32681265473365784
1667255161838909400,1.164909423828125,0.1539379209280014,-0.11117739230394363,0.318871408700943
1667255161841388800,1.167388916015625,0.14477495849132538,-0.10079269111156464,0.3139844834804535
1667255161843868000,1.169867919921875,0.13500112295150757,-0.08674279600381851,0.3121519088745117
1667255161846347300,1.17234716796875,0.12583814561367035,-0.06902772188186646,0.31154105067253113
1667255161848826400,1.174826416015625,0.1130099818110466,-0.05070177838206291,0.3139844834804535
1667255161851305700,1.1773056640625,0.10079269111156464,-0.03237583488225937,0.31520622968673706
1667255161853785000,1.17978515625,0.09285144507884979,-0.015271619893610477,0.3133736252784729
1667255161856264200,1.18226416015625,0.08491020649671555,0.002443459117785096,0.31031930446624756
1667255161858743600,1.18474365234375,0.07635809481143951,0.017104214057326317,0.3078758418560028
1667255161861223000,1.187222900390625,0.06902772188186646,0.028099779039621353,0.2987128794193268
1667255161863702000,1.189701904296875,0.0616973415017128,0.037262752652168274,0.28954991698265076
1667255161866181400,1.192181396484375,0.05742128938436508,0.039706211537122726,0.27855435013771057
1667255161868660500,1.194660400390625,0.053145237267017365,0.03787361457943916,0.2657261788845062
1667255161871139800,1.197139892578125,0.04886918142437935,0.027488915249705315,0.2516762912273407
1667255161873619200,1.199619140625,0.04520399495959282,0.010384701192378998,0.23762640357017517
1667255161876098300,1.202098388671875,0.03909534588456154,-0.01282816007733345,0.22418737411499023
1667255161878577700,1.20457763671875,0.0360410213470459,-0.03909534588456154,0.21135921776294708
1667255161881056800,1.207056884765625,0.028099779039621353,-0.06841685622930527,0.20341797173023224
1667255161883536100,1.2095361328125,0.023212861269712448,-0.10079269111156464,0.1948658674955368
1667255161886015500,1.212015380859375,0.017715077847242355,-0.13500112295150757,0.19120067358016968
1667255161888494600,1.21449462890625,0.014049889519810677,-0.17226386070251465,0.1893680840730667
1667255161890974000,1.216973876953125,0.010995565913617611,-0.20769402384757996,0.1905898153781891
1667255161893453000,1.219453125,0.007941242307424545,-0.24434591829776764,0.19792018830776215
1667255161895932400,1.221932373046875,0.002443459117785096,-0.27916520833969116,0.20769402384757996
1667255161898411800,1.224411865234375,-0.001832594396546483,-0.31154105067253113,0.21991132199764252
1667255161900891000,1.226890869140625,-0.007941242307424545,-0.34147340059280396,0.235793799161911
1667255161903370200,1.229370361328125,-0.017104214057326317,-0.36774060130119324,0.2528980076313019
1667255161905849600,1.231849609375,-0.029932374134659767,-0.3909534513950348,0.26878049969673157
1667255161908328700,1.23432861328125,-0.04459312930703163,-0.40866854786872864,0.28588470816612244
1667255161910808000,1.23680810546875,-0.0616973415017128,-0.41844236850738525,0.3029889166355133
1667255161913287400,1.239287353515625,-0.07941242307424545,-0.41905322670936584,0.3170388340950012
1667255161915766500,1.2417666015625,-0.0977383628487587,-0.4111120104789734,0.33108872175216675
1667255161918246000,1.244245849609375,-0.11423171311616898,-0.3964512348175049,0.3426951467990875
1667255161920725000,1.24672509765625,-0.13072505593299866,-0.3756818473339081,0.3500255048274994
1667255161923204400,1.249204345703125,-0.14294235408306122,-0.35063639283180237,0.35613417625427246
1667255161925683700,1.25168359375,-0.1539379209280014,-0.32131487131118774,0.3591884970664978
1667255161928162800,1.254162841796875,-0.1649334877729416,-0.29077163338661194,0.35735589265823364
1667255161930642200,1.25664208984375,-0.17226386070251465,-0.26022839546203613,0.35246896743774414
1667255161933121500,1.25912158203125,-0.17592905461788177,-0.2315177470445633,0.3439168632030487
1667255161935600600,1.2616005859375,-0.18081597983837128,-0.19914191961288452,0.3329212963581085
1667255161938080000,1.264080078125,-0.185092031955719,-0.16126830875873566,0.32009315490722656
1667255161940559000,1.26655908203125,-0.18875721096992493,-0.11911863088607788,0.3023780584335327
1667255161943038500,1.26903857421875,-0.19120067358016968,-0.07757982611656189,0.2828303873538971
1667255161945517800,1.271517822265625,-0.19425499439239502,-0.03909534588456154,0.2626718580722809
1667255161947997000,1.273996826171875,-0.19853104650974274,-0.001832594396546483,0.2412915825843811
1667255161950476300,1.276476318359375,-0.2009745091199875,0.033597562462091446,0.22235478460788727
1667255161952955600,1.27895556640625,-0.2052505612373352,0.06719512492418289,0.20280711352825165
1667255161955434800,1.281434814453125,-0.20708316564559937,0.10140355676412582,0.18753549456596375
1667255161957914000,1.2839140625,-0.2107483446598053,0.1331685185432434,0.17348559200763702
1667255161960393200,1.286393310546875,-0.21258094906806946,0.16615521907806396,0.16249002516269684
1667255161962872600,1.28887255859375,-0.21502439677715302,0.19853104650974274,0.15638138353824615
1667255161965352000,1.29135205078125,-0.21746785938739777,0.22663083672523499,0.1533270627260208
1667255161967831000,1.2938310546875,-0.22174391150474548,0.25534147024154663,0.15577052533626556
1667255161970310400,1.296310302734375,-0.22418737411499023,0.2779434621334076,0.1588248461484909
1667255161972789500,1.29878955078125,-0.23029601573944092,0.2987128794193268,0.16737695038318634
1667255161975268900,1.301268798828125,-0.23457208275794983,0.3133736252784729,0.17776164412498474
1667255161977748200,1.303748291015625,-0.23762640357017517,0.32070401310920715,0.1893680840730667
1667255161980227300,1.306227294921875,-0.2406807243824005,0.318871408700943,0.20280711352825165
1667255161982706700,1.308706787109375,-0.2467893660068512,0.31093016266822815,0.21807873249053955
1667255161985185800,1.311185791015625,-0.2467893660068512,0.29443681240081787,0.23396120965480804
1667255161987665200,1.3136650390625,-0.24740023910999298,0.2712239623069763,0.24862197041511536
1667255161990144500,1.31614453125,-0.24801109731197357,0.2406807243824005,0.2669478952884674
1667255161992623600,1.31862353515625,-0.24556763470172882,0.20769402384757996,0.2822195291519165
1667255161995103000,1.32110302734375,-0.2406807243824005,0.16859868168830872,0.2968802750110626
1667255161997582300,1.323582275390625,-0.2370155304670334,0.12522727251052856,0.3084867000579834
1667255162000061400,1.3260615234375,-0.23273947834968567,0.07757982611656189,0.3194822669029236
1667255162002540800,1.328540771484375,-0.23029601573944092,0.029932374134659767,0.328645259141922
1667255162005020000,1.33102001953125,-0.23029601573944092,-0.017715077847242355,0.3335321843624115
1667255162007499300,1.333499267578125,-0.2315177470445633,-0.06352993845939636,0.33719736337661743
1667255162009978600,1.335978515625,-0.23518294095993042,-0.11239911615848541,0.33719736337661743
1667255162012457700,1.338457763671875,-0.24312418699264526,-0.15638138353824615,0.3335321843624115
1667255162014937000,1.34093701171875,-0.25350889563560486,-0.19425499439239502,0.32681265473365784
1667255162017416200,1.343416259765625,-0.2663370370864868,-0.2260199636220932,0.31642794609069824
1667255162019895600,1.3458955078125,-0.28038692474365234,-0.24740023910999298,0.3029889166355133
1667255162022375000,1.348375,-0.29443681240081787,-0.2608392536640167,0.28954991698265076
1667255162024854000,1.35085400390625,-0.3084867000579834,-0.2669478952884674,0.2730565667152405
1667255162027333400,1.35333349609375,-0.3194822669029236,-0.2663370370864868,0.2510654330253601
1667255162029812700,1.355812744140625,-0.3298669755458832,-0.2577849328517914,0.22785256803035736
1667255162032291800,1.358291748046875,-0.33536475896835327,-0.2412915825843811,0.20219624042510986
1667255162034771200,1.360771240234375,-0.3426951467990875,-0.2162461280822754,0.17592905461788177
1667255162037250300,1.363250244140625,-0.34636032581329346,-0.185092031955719,0.14599667489528656
1667255162039729700,1.365729736328125,-0.34697118401527405,-0.15210533142089844,0.11667517572641373
1667255162042209000,1.368208984375,-0.3439168632030487,-0.11667517572641373,0.08613193035125732
1667255162044688100,1.370688232421875,-0.3396408259868622,-0.08002328872680664,0.05497783049941063
1667255162047167500,1.37316748046875,-0.3292561173439026,-0.043982263654470444,0.025045456364750862
1667255162049646800,1.375646728515625,-0.32070401310920715,-0.009773836471140385,-0.004276053514331579
1667255162052126000,1.3781259765625,-0.3090975880622864,0.020769402384757996,-0.030543239787220955
1667255162054605300,1.380605224609375,-0.2968802750110626,0.04764745384454727,-0.056199558079242706
1667255162057084400,1.38308447265625,-0.2883281707763672,0.07086031138896942,-0.08002328872680664
1667255162059563800,1.385563720703125,-0.27916520833969116,0.08918625861406326,-0.10079269111156464
1667255162062043100,1.388043212890625,-0.2706131041049957,0.10323614627122879,-0.12156209349632263
1667255162064522200,1.390522216796875,-0.26389357447624207,0.1130099818110466,-0.13744457066059113
1667255162067001600,1.393001708984375,-0.2565632164478302,0.12034036219120026,-0.15149445831775665
1667255162069481000,1.39548095703125,-0.24740023910999298,0.1233946830034256,-0.164322629570961
1667255162071960000,1.3979599609375,-0.23518294095993042,0.12095122784376144,-0.17653992772102356
1667255162074439400,1.400439453125,-0.22418737411499023,0.11178825795650482,-0.18264856934547424
1667255162076918500,1.40291845703125,-0.20952661335468292,0.09651663154363632,-0.18753549456596375
1667255162079398000,1.40539794921875,-0.19303326308727264,0.08002328872680664,-0.1893680840730667
1667255162081877200,1.407877197265625,-0.17348559200763702,0.06230820715427399,-0.1905898153781891
1667255162084356400,1.4103564453125,-0.1490510106086731,0.04276053607463837,-0.18753549456596375
1667255162086835700,1.412835693359375,-0.11972949653863907,0.0256563201546669,-0.18081597983837128
1667255162089314800,1.415314697265625,-0.08552107214927673,0.009162971749901772,-0.1698204129934311
1667255162091794200,1.417794189453125,-0.0513126403093338,-0.0054977829568088055,-0.1545487940311432
1667255162094273500,1.4202734375,-0.014049889519810677,-0.021380268037319183,-0.13194678723812103
1667255162096752600,1.422752685546875,0.020769402384757996,-0.03481929376721382,-0.1081230640411377
1667255162099232000,1.42523193359375,0.05803215503692627,-0.047036588191986084,-0.07880155742168427
1667255162101711400,1.42771142578125,0.09162971377372742,-0.05925388261675835,-0.047036588191986084
1667255162104190500,1.4301904296875,0.12217295914888382,-0.07024945318698883,-0.010384701192378998
1667255162106669800,1.432669921875,0.15088360011577606,-0.08063415437936783,0.028099779039621353
1667255162109149000,1.43514892578125,0.17776164412498474,-0.09040798991918564,0.06902772188186646
1667255162111628300,1.437628173828125,0.2003636509180069,-0.10140355676412582,0.1130099818110466
1667255162114107600,1.440107666015625,0.22296564280986786,-0.11239911615848541,0.16126830875873566
1667255162116586800,1.442586669921875,0.24434591829776764,-0.12644900381565094,0.20830489695072174
1667255162119066000,1.445066162109375,0.26878049969673157,-0.14110976457595825,0.258395791053772
1667255162121545500,1.44754541015625,0.29443681240081787,-0.16004657745361328,0.31093016266822815
1667255162124024600,1.450024658203125,0.31581708788871765,-0.1795942485332489,0.36163195967674255
1667255162126504000,1.45250390625,0.33169957995414734,-0.20219624042510986,0.411722868680954
1667255162128983000,1.454983154296875,0.33658650517463684,-0.22663083672523499,0.46059203147888184
1667255162131462400,1.45746240234375,0.33536475896835327,-0.2559523284435272,0.5100721120834351
1667255162133941800,1.459941650390625,0.3298669755458832,-0.2883281707763672,0.555276095867157
1667255162136420900,1.4624208984375,0.32070401310920715,-0.32009315490722656,0.6010909676551819
1667255162138900200,1.464900146484375,0.30970844626426697,-0.35063639283180237,0.6414080262184143
1667255162141379300,1.46737939453125,0.2968802750110626,-0.3811796307563782,0.6823359727859497
1667255162143858700,1.469858642578125,0.2822195291519165,-0.41294458508491516,0.7177661061286926
1667255162146338000,1.472338134765625,0.2724456787109375,-0.44470956921577454,0.7525854110717773
1667255162148817200,1.474817138671875,0.26022839546203613,-0.4789179861545563,0.7831286191940308
1667255162151296500,1.477296630859375,0.24862197041511536,-0.5149590373039246,0.8106175661087036
1667255162153775600,1.479775634765625,0.24006985127925873,-0.5479456782341003,0.8381064534187317
1667255162156255000,1.4822548828125,0.2309068888425827,-0.5784889459609985,0.8625410795211792
1667255162158734300,1.484734375,0.2211330533027649,-0.6053670048713684,0.8839213252067566
1667255162161213400,1.48721337890625,0.20647229254245758,-0.6273581385612488,0.9034690260887146
1667255162163692800,1.48969287109375,0.185092031955719,-0.6407971382141113,0.9187406301498413
1667255162166172200,1.492172119140625,0.15577052533626556,-0.6462949514389038,0.9321796298027039
1667255162168651300,1.4946513671875,0.11728604137897491,-0.6432406306266785,0.9425643682479858
1667255162171130600,1.497130615234375,0.07269290834665298,-0.6322450637817383,0.94439697265625
1667255162173609700,1.499609619140625,0.02260199747979641,-0.6114756464958191,0.9419534802436829
1667255162176089000,1.502089111328125,-0.02932151034474373,-0.5815432667732239,0.934623122215271
1667255162178568400,1.504568359375,-0.08674279600381851,-0.5442805290222168,0.9181297421455383
1667255162181047600,1.507047607421875,-0.13988803327083588,-0.4978547990322113,0.8943060636520386
1667255162183527000,1.50952685546875,-0.19181154668331146,-0.4428769648075104,0.8631519079208374
1667255162186006300,1.51200634765625,-0.23945899307727814,-0.3799578845500946,0.8265000581741333
1667255162188485400,1.5144853515625,-0.27855435013771057,-0.3133736252784729,0.7819069027900696
1667255162190964700,1.51696484375,-0.31093016266822815,-0.24495677649974823,0.7342594861984253
1667255162193443800,1.51944384765625,-0.33658650517463684,-0.1740964651107788,0.6811142563819885
1667255162195923200,1.521923095703125,-0.3585776388645172,-0.10384701192378998,0.6243038177490234
1667255162198402600,1.524402587890625,-0.37812530994415283,-0.03543015569448471,0.5681042671203613
1667255162200881700,1.526881591796875,-0.39339691400527954,0.02626718580722809,0.5088503360748291
1667255162203361000,1.529361083984375,-0.40866854786872864,0.08124501258134842,0.45387253165245056
1667255162205840400,1.53184033203125,-0.41844236850738525,0.12950333952903748,0.39889469742774963
1667255162208319500,1.534319580078125,-0.430659681558609,0.17348559200763702,0.34574946761131287
1667255162210798800,1.536798828125,-0.4410443603992462,0.21197007596492767,0.29565855860710144
1667255162213278000,1.53927783203125,-0.45020735263824463,0.2467893660068512,0.24862197041511536
1667255162215757300,1.54175732421875,-0.45998117327690125,0.2761108875274658,0.205861434340477
1667255162218236700,1.544236572265625,-0.4685332775115967,0.2968802750110626,0.1649334877729416
1667255162220715800,1.5467158203125,-0.4764745235443115,0.31093016266822815,0.12950333952903748
1667255162223195100,1.549195068359375,-0.4825831651687622,0.3194822669029236,0.09590577334165573
1667255162225674500,1.551674560546875,-0.4831940531730652,0.3243691921234131,0.06963858753442764
1667255162228153600,1.554153564453125,-0.48075059056282043,0.3237583339214325,0.04886918142437935
1667255162230633000,1.556633056640625,-0.4734202027320862,0.3194822669029236,0.02932151034474373
1667255162233112000,1.559112060546875,-0.4618137776851654,0.3133736252784729,0.01954767294228077
1667255162235591400,1.56159130859375,-0.4477638900279999,0.3042106628417969,0.014660755172371864
1667255162238070800,1.56407080078125,-0.430659681558609,0.2932150959968567,0.010384701192378998
1667255162240550000,1.5665498046875,-0.4153880476951599,0.27855435013771057,0.010995565913617611
1667255162243029200,1.569029296875,-0.39767298102378845,0.2620609998703003,0.015271619893610477
1667255162245508600,1.571508544921875,-0.3805687427520752,0.24373504519462585,0.020769402384757996
1667255162247987700,1.57398779296875,-0.3659079968929291,0.2260199636220932,0.028099779039621353
1667255162250467000,1.576467041015625,-0.35246896743774414,0.20402882993221283,0.036651886999607086
1667255162252946200,1.5789462890625,-0.337808221578598,0.17837251722812653,0.04581485688686371
1667255162255425500,1.581425537109375,-0.32559093832969666,0.15210533142089844,0.056199558079242706
1667255162257905000,1.58390478515625,-0.3121519088745117,0.12705987691879272,0.06536252796649933
1667255162260384000,1.586384033203125,-0.30054548382759094,0.10445787757635117,0.0769689604640007
1667255162262863400,1.58886328125,-0.2883281707763672,0.0824667438864708,0.08674279600381851
1667255162265342700,1.5913427734375,-0.2767217457294464,0.0616973415017128,0.09651663154363632
1667255162267821800,1.59382177734375,-0.2669478952884674,0.04276053607463837,0.1081230640411377
1667255162270301200,1.59630126953125,-0.2577849328517914,0.028099779039621353,0.1178968995809555
1667255162272780300,1.5987802734375,-0.24740023910999298,0.01893680728971958,0.12644900381565094
1667255162275259600,1.601259765625,-0.23762640357017517,0.017715077847242355,0.13683371245861053
1667255162277739000,1.603739013671875,-0.2254091054201126,0.023823726922273636,0.1496618688106537
1667255162280218000,1.606218017578125,-0.21380266547203064,0.037262752652168274,0.16126830875873566
1667255162282697500,1.608697509765625,-0.20219624042510986,0.056199558079242706,0.17226386070251465
1667255162285176600,1.611176513671875,-0.19242240488529205,0.0824667438864708,0.18081597983837128
1667255162287656000,1.613656005859375,-0.18570289015769958,0.11484257876873016,0.1899789422750473
1667255162290135300,1.61613525390625,-0.1802051067352295,0.15149445831775665,0.19792018830776215
1667255162292614400,1.618614501953125,-0.1802051067352295,0.1905898153781891,0.2003636509180069
1667255162295093800,1.62109375,-0.17898337543010712,0.23212862014770508,0.19914191961288452
1667255162297573000,1.623572998046875,-0.17837251722812653,0.2761108875274658,0.19181154668331146
1667255162300052200,1.62605224609375,-0.17715078592300415,0.32131487131118774,0.18325942754745483
1667255162302531600,1.628531494140625,-0.17348559200763702,0.3634645342826843,0.1692095398902893
1667255162305010700,1.6310107421875,-0.16187916696071625,0.40317076444625854,0.15271618962287903
1667255162307490000,1.633489990234375,-0.1490510106086731,0.43982264399528503,0.1331685185432434
1667255162309969400,1.635969482421875,-0.13011419773101807,0.47525280714035034,0.11423171311616898
1667255162312448500,1.638448486328125,-0.11178825795650482,0.5076286196708679,0.09590577334165573
1667255162314927900,1.640927978515625,-0.08979712426662445,0.536339282989502,0.07757982611656189
1667255162317407000,1.643406982421875,-0.06597339361906052,0.56382817029953,0.06414080411195755
1667255162319886300,1.64588623046875,-0.04276053607463837,0.5876519083976746,0.0513126403093338
1667255162322365700,1.64836572265625,-0.020769402384757996,0.6084213256835938,0.04153880476951599
1667255162324844800,1.6508447265625,0.0030543238390237093,0.6249146461486816,0.0360410213470459
1667255162327324200,1.65332421875,0.023823726922273636,0.637742817401886,0.03176496922969818
1667255162329803300,1.65580322265625,0.04886918142437935,0.6420188546180725,0.030543239787220955
1667255162332282600,1.65828271484375,0.07513637095689774,0.638353705406189,0.03176496922969818
1667255162334762000,1.660761962890625,0.1026252806186676,0.6243038177490234,0.033597562462091446
1667255162337241000,1.663240966796875,0.13500112295150757,0.5992583632469177,0.04276053607463837
1667255162339720400,1.665720458984375,0.1692095398902893,0.56382817029953,0.05070177838206291
1667255162342199800,1.66819970703125,0.20769402384757996,0.5198459029197693,0.06536252796649933
1667255162344679000,1.670678955078125,0.24495677649974823,0.46425724029541016,0.08796452730894089
1667255162347158300,1.673158203125,0.2822195291519165,0.40317076444625854,0.11056652665138245
1667255162349637600,1.6756376953125,0.3182605504989624,0.34086254239082336,0.13927717506885529
1667255162352116700,1.67811669921875,0.35063639283180237,0.2767217457294464,0.1747073233127594
1667255162354596000,1.68059619140625,0.3799578845500946,0.21135921776294708,0.21441353857517242
1667255162357075200,1.6830751953125,0.4056142270565033,0.14782927930355072,0.2565632164478302
1667255162359554600,1.685554443359375,0.4263836145401001,0.08613193035125732,0.3029889166355133
1667255162362034000,1.688033935546875,0.4453204274177551,0.025045456364750862,0.3500255048274994
1667255162364513000,1.690512939453125,0.45875945687294006,-0.03298669680953026,0.3964512348175049
1667255162366992400,1.692992431640625,0.47036588191986084,-0.09101885557174683,0.4422661066055298
1667255162369471700,1.6954716796875,0.4783071279525757,-0.14660754799842834,0.4862483739852905
1667255162371950800,1.697950927734375,0.4770853817462921,-0.19730933010578156,0.5235111117362976
1667255162374430200,1.70043017578125,0.4728093445301056,-0.24373504519462585,0.5571087002754211
1667255162376909300,1.702909423828125,0.46364638209342957,-0.2834412455558777,0.5839866995811462
1667255162379388700,1.705388671875,0.4508182108402252,-0.3170388340950012,0.6065887212753296
1667255162381868000,1.707867919921875,0.4367683231830597,-0.3439168632030487,0.6230821013450623
1667255162384347100,1.71034716796875,0.4196641147136688,-0.3646862804889679,0.6346884965896606
1667255162386826500,1.712826416015625,0.4050033390522003,-0.37751442193984985,0.6426297426223755
1667255162389305900,1.715305908203125,0.39217519760131836,-0.3848448097705841,0.6450732350349426
1667255162391785000,1.717784912109375,0.38240134716033936,-0.3842339515686035,0.6450732350349426
1667255162394264300,1.720264404296875,0.37323838472366333,-0.37812530994415283,0.6432406306266785
1667255162396743400,1.722743408203125,0.36224281787872314,-0.36774060130119324,0.637742817401886
1667255162399222800,1.725222900390625,0.3481929302215576,-0.3549124300479889,0.627968966960907
1667255162401702100,1.7277021484375,0.3341430425643921,-0.3390299379825592,0.6175842881202698
1667255162404181200,1.73018115234375,0.3176496922969818,-0.3225366175174713,0.6023126840591431
1667255162406660600,1.73266064453125,0.2993237376213074,-0.3035998046398163,0.5858193039894104
1667255162409140000,1.735139892578125,0.27855435013771057,-0.28527384996414185,0.5662716627120972
1667255162411619000,1.737619140625,0.2565632164478302,-0.26450446248054504,0.544891357421875
1667255162414098400,1.740098388671875,0.23273947834968567,-0.24373504519462585,0.5241219997406006
1667255162416577500,1.74257763671875,0.20647229254245758,-0.22235478460788727,0.5027416944503784
1667255162419057000,1.745056884765625,0.17837251722812653,-0.19853104650974274,0.48013970255851746
1667255162421536300,1.747536376953125,0.14782927930355072,-0.17104214429855347,0.4575377106666565
1667255162424015400,1.750015380859375,0.11423171311616898,-0.1441640853881836,0.43371400237083435
1667255162426494700,1.75249462890625,0.08002328872680664,-0.1178968995809555,0.4105011224746704
1667255162428974000,1.75497412109375,0.04459312930703163,-0.08979712426662445,0.38728827238082886
1667255162431453200,1.757453125,0.010384701192378998,-0.06230820715427399,0.36224281787872314
1667255162433932500,1.7599326171875,-0.021991131827235222,-0.03481929376721382,0.3402516841888428
1667255162436411600,1.76241162109375,-0.053145237267017365,-0.007330377586185932,0.318871408700943
1667255162438891000,1.76489111328125,-0.07757982611656189,0.020158538594841957,0.2993237376213074
1667255162441370400,1.767370361328125,-0.1026252806186676,0.050090912729501724,0.2822195291519165
1667255162443849500,1.769849365234375,-0.12156209349632263,0.0824667438864708,0.26511532068252563
1667255162446328800,1.772328857421875,-0.14110976457595825,0.11484257876873016,0.2510654330253601
1667255162448808000,1.774807861328125,-0.15699224174022675,0.14660754799842834,0.2370155304670334
1667255162451287300,1.777287353515625,-0.17226386070251465,0.1740964651107788,0.22357651591300964
1667255162453766700,1.7797666015625,-0.185092031955719,0.19303326308727264,0.20891575515270233
1667255162456245800,1.782245849609375,-0.19425499439239502,0.20402882993221283,0.1899789422750473
1667255162458725000,1.78472509765625,-0.2003636509180069,0.20952661335468292,0.17104214429855347
1667255162461204500,1.78720458984375,-0.20219624042510986,0.2107483446598053,0.15088360011577606
1667255162463683600,1.78968359375,-0.20219624042510986,0.20830489695072174,0.12767073512077332
1667255162466163000,1.792162841796875,-0.19914191961288452,0.2009745091199875,0.10751219838857651
1667255162468642000,1.79464208984375,-0.19181154668331146,0.18753549456596375,0.08552107214927673
1667255162471121400,1.797121337890625,-0.185092031955719,0.17043127119541168,0.06414080411195755
1667255162473600800,1.799600830078125,-0.1747073233127594,0.15271618962287903,0.04764745384454727
1667255162476079900,1.802079833984375,-0.16676609218120575,0.1386663019657135,0.037262752652168274
1667255162478559200,1.804559326171875,-0.15760311484336853,0.12583814561367035,0.028099779039621353
1667255162481038300,1.807038330078125,-0.15271618962287903,0.11728604137897491,0.023212861269712448
1667255162483517700,1.809517578125,-0.15027274191379547,0.11117739230394363,0.023212861269712448
1667255162485997000,1.8119970703125,-0.15149445831775665,0.10751219838857651,0.023823726922273636
1667255162488476200,1.81447607421875,-0.15577052533626556,0.10567960888147354,0.027488915249705315
1667255162490955500,1.81695556640625,-0.164322629570961,0.10690133273601532,0.02871064469218254
1667255162493435000,1.819434814453125,-0.17776164412498474,0.1081230640411377,0.02871064469218254
1667255162495914000,1.8219140625,-0.19303326308727264,0.11178825795650482,0.026878049597144127
1667255162498393300,1.824393310546875,-0.20708316564559937,0.1185077652335167,0.020158538594841957
1667255162500872400,1.82687255859375,-0.22174391150474548,0.12583814561367035,0.010995565913617611
1667255162503351800,1.829351806640625,-0.23335035145282745,0.13011419773101807,0.000610864779446274
1667255162505831200,1.8318310546875,-0.2461785078048706,0.1337793916463852,-0.010384701192378998
1667255162508310300,1.834310302734375,-0.25961753726005554,0.13561198115348816,-0.020769402384757996
1667255162510789600,1.83678955078125,-0.27550002932548523,0.13561198115348816,-0.02932151034474373
1667255162513269000,1.83926904296875,-0.2919933497905731,0.13500112295150757,-0.03848448023200035
1667255162515748000,1.841748046875,-0.3133736252784729,0.1331685185432434,-0.046425722539424896
1667255162518227500,1.8442275390625,-0.33658650517463684,0.13194678723812103,-0.05558869615197182
1667255162520706600,1.84670654296875,-0.3585776388645172,0.1337793916463852,-0.06475166976451874
1667255162523186000,1.84918603515625,-0.3848448097705841,0.13683371245861053,-0.07574722915887833
1667255162525665300,1.851665283203125,-0.40805765986442566,0.14110976457595825,-0.08918625861406326
1667255162528144400,1.854144287109375,-0.42943793535232544,0.14599667489528656,-0.10506874322891235
1667255162530623700,1.856623779296875,-0.44837474822998047,0.15149445831775665,-0.11972949653863907
1667255162533103000,1.85910302734375,-0.4630354940891266,0.1594357043504715,-0.13683371245861053
1667255162535582200,1.861582275390625,-0.47525280714035034,0.17104214429855347,-0.1545487940311432
1667255162538061600,1.8640615234375,-0.4862483739852905,0.18570289015769958,-0.17104214429855347
1667255162540540700,1.866540771484375,-0.4935787320137024,0.20341797173023224,-0.18631376326084137
1667255162543020000,1.86902001953125,-0.5033525824546814,0.21807873249053955,-0.20158538222312927
1667255162545499400,1.87149951171875,-0.5137372612953186,0.23457208275794983,-0.21685700118541718
1667255162547978500,1.873978515625,-0.526565432548523,0.2510654330253601,-0.22968515753746033
1667255162550457900,1.876457763671875,-0.5406153202056885,0.26939135789871216,-0.2412915825843811
1667255162552937200,1.878937255859375,-0.5577195286750793,0.28527384996414185,-0.25350889563560486
1667255162555416300,1.881416259765625,-0.5754346251487732,0.29993459582328796,-0.26389357447624207
1667255162557895700,1.883895751953125,-0.5900954008102417,0.3121519088745117,-0.2718348205089569
1667255162560374800,1.886374755859375,-0.6065887212753296,0.32192572951316833,-0.27977606654167175
1667255162562854100,1.888854248046875,-0.6194168925285339,0.3298669755458832,-0.2877173125743866
1667255162565333500,1.89133349609375,-0.6304124593734741,0.33719736337661743,-0.29077163338661194
1667255162567812600,1.8938125,-0.6371319890022278,0.34574946761131287,-0.2968802750110626
1667255162570292000,1.8962919921875,-0.6395754218101501,0.35185810923576355,-0.29993459582328796
1667255162572771300,1.898771240234375,-0.6334667801856995,0.3597993552684784,-0.2993237376213074
1667255162575250400,1.90125048828125,-0.6261364221572876,0.3640754222869873,-0.3023780584335327
1667255162577729800,1.903729736328125,-0.6133082509040833,0.36712974309921265,-0.3017672002315521
1667255162580209000,1.906208984375,-0.593149721622467,0.3689623177051544,-0.2993237376213074
1667255162582688300,1.908688232421875,-0.5723803043365479,0.3689623177051544,-0.2968802750110626
1667255162585167600,1.911167724609375,-0.545502245426178,0.3652971386909485,-0.29077163338661194
1667255162587646700,1.913646728515625,-0.5174024701118469,0.3597993552684784,-0.2883281707763672
1667255162590126000,1.9161259765625,-0.4868592321872711,0.35185810923576355,-0.28405213356018066
1667255162592605400,1.91860546875,-0.45509424805641174,0.3402516841888428,-0.2779434621334076
1667255162595084500,1.92108447265625,-0.4196641147136688,0.3243691921234131,-0.2712239623069763
1667255162597564000,1.92356396484375,-0.38179048895835876,0.3042106628417969,-0.2620609998703003
1667255162600043000,1.92604296875,-0.34086254239082336,0.27977606654167175,-0.24862197041511536
1667255162602522400,1.9285224609375,-0.30115634202957153,0.25045454502105713,-0.23273947834968567
1667255162605001700,1.931001708984375,-0.2614501118659973,0.21746785938739777,-0.21197007596492767
1667255162607480800,1.933480712890625,-0.2211330533027649,0.17837251722812653,-0.18692462146282196
1667255162609960200,1.935960205078125,-0.1844811588525772,0.1380554437637329,-0.15821397304534912
1667255162612439600,1.938439453125,-0.14599667489528656,0.09468404203653336,-0.12644900381565094
1667255162614918700,1.940918701171875,-0.10995566099882126,0.04764745384454727,-0.08918625861406326
1667255162617398000,1.94339794921875,-0.07452550530433655,-0.000610864779446274,-0.049480047076940536
1667255162619877000,1.945877197265625,-0.040317077189683914,-0.05070177838206291,-0.004886918235570192
1667255162622356500,1.9483564453125,-0.004886918235570192,-0.10445787757635117,0.043982263654470444
1667255162624835800,1.9508359375,0.028099779039621353,-0.16004657745361328,0.09529490768909454
1667255162627315000,1.95331494140625,0.06108647957444191,-0.21930044889450073,0.15149445831775665
1667255162629794300,1.955794189453125,0.09346231073141098,-0.27916520833969116,0.20830489695072174
1667255162632273700,1.958273681640625,0.12217295914888382,-0.33658650517463684,0.26939135789871216
1667255162634752800,1.960752685546875,0.1484401375055313,-0.3903425931930542,0.3335321843624115
1667255162637232000,1.963232177734375,0.17165300250053406,-0.4404335021972656,0.3964512348175049
1667255162639711200,1.965711181640625,0.1905898153781891,-0.48441576957702637,0.45998117327690125
1667255162642190600,1.968190673828125,0.2003636509180069,-0.5247328281402588,0.5204567909240723
1667255162644670000,1.970669921875,0.20891575515270233,-0.5607738494873047,0.5772672295570374
1667255162647149000,1.973149169921875,0.21807873249053955,-0.5894845128059387,0.6291907429695129
1667255162649628400,1.97562841796875,0.22235478460788727,-0.6133082509040833,0.676227331161499
1667255162652107800,1.978107666015625,0.22479823231697083,-0.6310232877731323,0.7147117853164673
1667255162654587000,1.9805869140625,0.22663083672523499,-0.6462949514389038,0.7483093738555908
1667255162657066200,1.983066162109375,0.22479823231697083,-0.6579013466835022,0.7751874327659607
1667255162659545300,1.98554541015625,0.21807873249053955,-0.6695078015327454,0.7959567904472351
1667255162662024700,1.988024658203125,0.21380266547203064,-0.6768381595611572,0.8100066781044006
1667255162664504000,1.990504150390625,0.2052505612373352,-0.6823359727859497,0.8197805285453796
1667255162666983200,1.992983154296875,0.19425499439239502,-0.6811142563819885,0.8265000581741333
1667255162669462500,1.995462646484375,0.18203771114349365,-0.6731730103492737,0.8277217745780945
1667255162671942000,1.99794189453125,0.16676609218120575,-0.657290518283844,0.8258891701698303
1667255162674421000,2.0004208984375,0.1496618688106537,-0.6352993845939636,0.8191696405410767
1667255162676900400,2.002900390625,0.12767073512077332,-0.6114756464958191,0.8112284541130066
1667255162679379500,2.00537939453125,0.10629047453403473,-0.5821541547775269,0.7990111112594604
1667255162681858800,2.00785888671875,0.0818558782339096,-0.5516108870506287,0.7849612236022949
1667255162684338200,2.010338134765625,0.05803215503692627,-0.516791582107544,0.7703005075454712
1667255162686817300,2.0128173828125,0.03298669680953026,-0.4783071279525757,0.749531090259552
1667255162689296600,2.015296630859375,0.007941242307424545,-0.4361574649810791,0.7287616729736328
1667255162691776000,2.01777587890625,-0.01588248461484909,-0.3897317349910736,0.7018836140632629
1667255162694255000,2.020255126953125,-0.03787361457943916,-0.337808221578598,0.6701186895370483
1667255162696734500,2.022734375,-0.059864748269319534,-0.28038692474365234,0.6371319890022278
1667255162699213600,2.025213623046875,-0.08002328872680664,-0.21807873249053955,0.5980366468429565
1667255162701693000,2.02769287109375,-0.0977383628487587,-0.1594357043504715,0.5540543794631958
1667255162704172300,2.03017236328125,-0.11362084746360779,-0.1026252806186676,0.5051851868629456
1667255162706651400,2.0326513671875,-0.1233946830034256,-0.047036588191986084,0.44837474822998047
1667255162709130800,2.035130859375,-0.12767073512077332,0.0054977829568088055,0.38850998878479004
1667255162711610000,2.037610107421875,-0.12583814561367035,0.05436696484684944,0.3274235129356384
1667255162714089200,2.040089111328125,-0.12034036219120026,0.10018182545900345,0.2620609998703003
1667255162716568600,2.042568603515625,-0.11239911615848541,0.13988803327083588,0.19669845700263977
1667255162719047700,2.045047607421875,-0.10445787757635117,0.17287473380565643,0.13133592903614044
1667255162721527000,2.047527099609375,-0.09834922850131989,0.20280711352825165,0.06597339361906052
1667255162724006400,2.05000634765625,-0.09162971377372742,0.22785256803035736,0.001221729558892548
1667255162726485500,2.052485595703125,-0.08613193035125732,0.24740023910999298,-0.056810423731803894
1667255162728964900,2.05496484375,-0.08063415437936783,0.2632827162742615,-0.1130099818110466
1667255162731444200,2.0574443359375,-0.07574722915887833,0.2779434621334076,-0.16187916696071625
1667255162733923300,2.05992333984375,-0.07024945318698883,0.29138249158859253,-0.2052505612373352
1667255162736402700,2.062402587890625,-0.06414080411195755,0.3029889166355133,-0.24373504519462585
1667255162738881800,2.0648818359375,-0.05925388261675835,0.3127627670764923,-0.27366742491722107
1667255162741361200,2.067361083984375,-0.05436696484684944,0.31581708788871765,-0.2968802750110626
1667255162743840500,2.069840576171875,-0.05192350596189499,0.3127627670764923,-0.31581708788871765
1667255162746319600,2.072319580078125,-0.0513126403093338,0.3066541254520416,-0.32681265473365784
1667255162748799000,2.074799072265625,-0.049480047076940536,0.29016077518463135,-0.3329212963581085
1667255162751278000,2.077278076171875,-0.04886918142437935,0.27000224590301514,-0.3347539007663727
1667255162753757400,2.07975732421875,-0.049480047076940536,0.24740023910999298,-0.33047783374786377
1667255162756236800,2.08223681640625,-0.05192350596189499,0.22357651591300964,-0.3225366175174713
1667255162758716000,2.0847158203125,-0.056199558079242706,0.19792018830776215,-0.31031930446624756
1667255162761195300,2.0871953125,-0.06108647957444191,0.17043127119541168,-0.29504770040512085
1667255162763674600,2.089674560546875,-0.06719512492418289,0.14233149588108063,-0.2761108875274658
1667255162766153700,2.09215380859375,-0.07391463965177536,0.11484257876873016,-0.25473061203956604
1667255162768633000,2.094633056640625,-0.08063415437936783,0.08491020649671555,-0.2309068888425827
1667255162771112200,2.0971123046875,-0.08857539296150208,0.05864302068948746,-0.2052505612373352
1667255162773591600,2.099591552734375,-0.09590577334165573,0.031154103577136993,-0.17776164412498474
1667255162776071000,2.10207080078125,-0.10018182545900345,0.003665188793092966,-0.1484401375055313
1667255162778550000,2.104550048828125,-0.10690133273601532,-0.01954767294228077,-0.11545344442129135
1667255162781029400,2.107029296875,-0.1130099818110466,-0.04153880476951599,-0.08368847519159317
1667255162783508700,2.1095087890625,-0.11606431007385254,-0.05925388261675835,-0.05070177838206291
1667255162785987800,2.11198779296875,-0.12095122784376144,-0.07452550530433655,-0.01649334840476513
1667255162788467200,2.11446728515625,-0.12461641430854797,-0.08674279600381851,0.01893680728971958
1667255162790946300,2.1169462890625,-0.12644900381565094,-0.09651663154363632,0.04825831577181816
1667255162793425700,2.11942578125,-0.13072505593299866,-0.10384701192378998,0.0769689604640007
1667255162795905000,2.121905029296875,-0.13683371245861053,-0.11056652665138245,0.10506874322891235
1667255162798384000,2.124384033203125,-0.13988803327083588,-0.11667517572641373,0.12644900381565094
1667255162800863500,2.126863525390625,-0.14477495849132538,-0.12034036219120026,0.14660754799842834
1667255162803342800,2.1293427734375,-0.15210533142089844,-0.12278381735086441,0.1588248461484909
1667255162805822000,2.131822021484375,-0.15515965223312378,-0.12461641430854797,0.16737695038318634
1667255162808301300,2.13430126953125,-0.15638138353824615,-0.12705987691879272,0.17165300250053406
1667255162810780400,2.136780517578125,-0.15760311484336853,-0.13072505593299866,0.16798780858516693
1667255162813259800,2.139259765625,-0.1539379209280014,-0.13133592903614044,0.16126830875873566
1667255162815739100,2.1417392578125,-0.1484401375055313,-0.12950333952903748,0.1490510106086731
1667255162818218200,2.14421826171875,-0.13927717506885529,-0.12400554865598679,0.13194678723812103
1667255162820697600,2.146697509765625,-0.12400554865598679,-0.1130099818110466,0.11362084746360779
1667255162823177000,2.149177001953125,-0.1081230640411377,-0.10201441496610641,0.0922405794262886
1667255162825656000,2.151656005859375,-0.09590577334165573,-0.09101885557174683,0.06902772188186646
1667255162828135400,2.154135498046875,-0.08552107214927673,-0.07880155742168427,0.04581485688686371
1667255162830614500,2.156614501953125,-0.07819069176912308,-0.06597339361906052,0.021380268037319183
1667255162833094000,2.159093994140625,-0.07452550530433655,-0.049480047076940536,-0.001832594396546483
1667255162835573200,2.1615732421875,-0.07269290834665298,-0.03237583488225937,-0.024434590712189674
1667255162838052400,2.16405224609375,-0.07330377399921417,-0.013439024798572063,-0.04764745384454727
1667255162840531700,2.16653173828125,-0.07391463965177536,0.004276053514331579,-0.07024945318698883
1667255162843011000,2.169010986328125,-0.07513637095689774,0.01893680728971958,-0.09529490768909454
1667255162845490200,2.171490234375,-0.07147117704153061,0.028099779039621353,-0.11362084746360779
1667255162847969500,2.173969482421875,-0.06841685622930527,0.03176496922969818,-0.1337793916463852
1667255162850448600,2.17644873046875,-0.06291907280683517,0.02871064469218254,-0.15210533142089844
1667255162852928000,2.178927978515625,-0.05925388261675835,0.02260199747979641,-0.16615521907806396
1667255162855407400,2.181407470703125,-0.056199558079242706,0.011606430634856224,-0.1795942485332489
1667255162857886500,2.183886474609375,-0.056810423731803894,-0.004276053514331579,-0.1893680840730667
1667255162860365800,2.18636572265625,-0.056810423731803894,-0.020769402384757996,-0.19669845700263977
1667255162862845200,2.18884521484375,-0.05925388261675835,-0.034208428114652634,-0.2003636509180069
1667255162865324300,2.19132421875,-0.06230820715427399,-0.0409279391169548,-0.20463970303535461
1667255162867803600,2.1938037109375,-0.06719512492418289,-0.03848448023200035,-0.20280711352825165
1667255162870282800,2.19628271484375,-0.07086031138896942,-0.02871064469218254,-0.2003636509180069
1667255162872762000,2.19876220703125,-0.07513637095689774,-0.014660755172371864,-0.19730933010578156
1667255162875241500,2.201241455078125,-0.07941242307424545,0.003665188793092966,-0.1905898153781891
1667255162877720600,2.203720458984375,-0.0824667438864708,0.01649334840476513,-0.18387030065059662
1667255162880200000,2.206199951171875,-0.08613193035125732,0.02626718580722809,-0.17531819641590118
1667255162882679300,2.20867919921875,-0.09040798991918564,0.03176496922969818,-0.16615521907806396
1667255162885158400,2.211158447265625,-0.09529490768909454,0.03176496922969818,-0.15577052533626556
1667255162887637800,2.2136376953125,-0.10140355676412582,0.027488915249705315,-0.14660754799842834
1667255162890116900,2.216116943359375,-0.10690133273601532,0.020769402384757996,-0.13683371245861053
1667255162892596200,2.21859619140625,-0.11178825795650482,0.009773836471140385,-0.1288924664258957
1667255162895075600,2.22107568359375,-0.1185077652335167,-0.0030543238390237093,-0.12278381735086441
1667255162897554700,2.2235546875,-0.12156209349632263,-0.015271619893610477,-0.1185077652335167
1667255162900034000,2.226033935546875,-0.12522727251052856,-0.027488915249705315,-0.11972949653863907
1667255162902513400,2.228513427734375,-0.12156209349632263,-0.0409279391169548,-0.12217295914888382
1667255162904992500,2.230992431640625,-0.11606431007385254,-0.05253437161445618,-0.12705987691879272
1667255162907472000,2.233471923828125,-0.10384701192378998,-0.06291907280683517,-0.13255766034126282
1667255162909951000,2.235950927734375,-0.09162971377372742,-0.07330377399921417,-0.14110976457595825
1667255162912430300,2.238430419921875,-0.07269290834665298,-0.08002328872680664,-0.14721840620040894
1667255162914909700,2.24090966796875,-0.053756099194288254,-0.08124501258134842,-0.15027274191379547
1667255162917388800,2.243388916015625,-0.03237583488225937,-0.07819069176912308,-0.1533270627260208
1667255162919868200,2.2458681640625,-0.012217295356094837,-0.06719512492418289,-0.1533270627260208
1667255162922347500,2.248347412109375,0.010384701192378998,-0.053145237267017365,-0.15271618962287903
1667255162924826600,2.25082666015625,0.03176496922969818,-0.03909534588456154,-0.15271618962287903
1667255162927306000,2.253305908203125,0.050090912729501724,-0.021380268037319183,-0.14782927930355072
1667255162929785000,2.25578515625,0.06780599057674408,-0.0054977829568088055,-0.14660754799842834
1667255162932264400,2.258264404296875,0.08307760953903198,0.009162971749901772,-0.143553227186203
1667255162934743800,2.260743896484375,0.09468404203653336,0.015271619893610477,-0.13988803327083588
1667255162937223000,2.263222900390625,0.1081230640411377,0.014049889519810677,-0.13500112295150757
1667255162939702300,2.265702392578125,0.11667517572641373,0.006108647678047419,-0.13072505593299866
1667255162942181600,2.268181640625,0.12156209349632263,-0.009773836471140385,-0.1233946830034256
1667255162944660700,2.27066064453125,0.12522727251052856,-0.031154103577136993,-0.11484257876873016
1667255162947140000,2.27314013671875,0.12522727251052856,-0.05925388261675835,-0.10323614627122879
1667255162949619500,2.275619384765625,0.12217295914888382,-0.08979712426662445,-0.08918625861406326
1667255162952098600,2.2780986328125,0.11667517572641373,-0.11972949653863907,-0.07330377399921417
1667255162954578000,2.280577880859375,0.11117739230394363,-0.1496618688106537,-0.05558869615197182
1667255162957057000,2.28305712890625,0.10323614627122879,-0.17592905461788177,-0.03909534588456154
1667255162959536400,2.285536376953125,0.09712749719619751,-0.1997527778148651,-0.021991131827235222
1667255162962015700,2.288015625,0.0922405794262886,-0.22296564280986786,-0.006719512399286032
1667255162964494800,2.290494873046875,0.08796452730894089,-0.24373504519462585,0.009162971749901772
1667255162966974200,2.29297412109375,0.08491020649671555,-0.2614501118659973,0.01893680728971958
1667255162969453600,2.29545361328125,0.0818558782339096,-0.27550002932548523,0.027488915249705315
1667255162971932700,2.2979326171875,0.0769689604640007,-0.28527384996414185,0.03787361457943916
1667255162974412000,2.300412109375,0.06963858753442764,-0.2883281707763672,0.04214967042207718
1667255162976891100,2.30289111328125,0.05925388261675835,-0.287106454372406,0.043982263654470444
1667255162979370500,2.30537060546875,0.04764745384454727,-0.28038692474365234,0.04764745384454727
1667255162981849900,2.307849853515625,0.03176496922969818,-0.2669478952884674,0.046425722539424896
1667255162984329000,2.310328857421875,0.01893680728971958,-0.25045454502105713,0.043371398001909256
1667255162986808300,2.312808349609375,0.006108647678047419,-0.2315177470445633,0.040317077189683914
1667255162989287700,2.31528759765625,-0.004886918235570192,-0.21319180727005005,0.0360410213470459
1667255162991766800,2.317766845703125,-0.01588248461484909,-0.1954767256975174,0.030543239787220955
1667255162994246100,2.32024609375,-0.028099779039621353,-0.1795942485332489,0.025045456364750862
1667255162996725200,2.322725341796875,-0.0409279391169548,-0.16615521907806396,0.01954767294228077
1667255162999204600,2.32520458984375,-0.05803215503692627,-0.1533270627260208,0.01282816007733345
1667255163001684000,2.32768408203125,-0.07819069176912308,-0.14477495849132538,0.0054977829568088055
1667255163004163000,2.3301630859375,-0.10140355676412582,-0.13683371245861053,-0.001832594396546483
1667255163006642400,2.332642333984375,-0.12705987691879272,-0.13133592903614044,-0.012217295356094837
1667255163009121800,2.335121826171875,-0.15088360011577606,-0.1288924664258957,-0.020769402384757996
1667255163011601000,2.337600830078125,-0.17348559200763702,-0.12705987691879272,-0.03481929376721382
1667255163014080300,2.340080322265625,-0.19303326308727264,-0.12522727251052856,-0.04886918142437935
1667255163016559400,2.342559326171875,-0.21258094906806946,-0.12278381735086441,-0.06230820715427399
1667255163019038700,2.345038818359375,-0.2260199636220932,-0.11667517572641373,-0.0769689604640007
1667255163021518000,2.34751806640625,-0.23518294095993042,-0.10567960888147354,-0.09162971377372742
1667255163023997200,2.3499970703125,-0.23945899307727814,-0.08918625861406326,-0.10506874322891235
1667255163026476500,2.3524765625,-0.2419024556875229,-0.06841685622930527,-0.1178968995809555
1667255163028956000,2.354955810546875,-0.2406807243824005,-0.043371398001909256,-0.12950333952903748
1667255163031435000,2.35743505859375,-0.23884813487529755,-0.014660755172371864,-0.14049890637397766
1667255163033914400,2.359914306640625,-0.2364046722650528,0.015271619893610477,-0.15149445831775665
1667255163036393700,2.362393798828125,-0.23335035145282745,0.046425722539424896,-0.16065743565559387
1667255163038872800,2.364872802734375,-0.2309068888425827,0.07391463965177536,-0.17165300250053406
1667255163041352200,2.367352294921875,-0.22724169492721558,0.09834922850131989,-0.1802051067352295
1667255163043831300,2.369831298828125,-0.22357651591300964,0.12034036219120026,-0.1893680840730667
1667255163046310700,2.372310546875,-0.21930044889450073,0.1386663019657135,-0.1997527778148651
1667255163048790000,2.3747900390625,-0.2162461280822754,0.1545487940311432,-0.20708316564559937
1667255163051269000,2.37726904296875,-0.21197007596492767,0.16737695038318634,-0.21502439677715302
1667255163053748500,2.37974853515625,-0.20830489695072174,0.17898337543010712,-0.2211330533027649
1667255163056227800,2.382227783203125,-0.20280711352825165,0.18570289015769958,-0.22785256803035736
1667255163058707000,2.38470703125,-0.19792018830776215,0.18875721096992493,-0.2309068888425827
1667255163061186300,2.387186279296875,-0.19120067358016968,0.18875721096992493,-0.2315177470445633
1667255163063665400,2.38966552734375,-0.18570289015769958,0.18570289015769958,-0.23396120965480804
1667255163066144800,2.392144775390625,-0.17898337543010712,0.1795942485332489,-0.23396120965480804
1667255163068624100,2.3946240234375,-0.1740964651107788,0.16737695038318634,-0.22968515753746033
1667255163071103200,2.397103271484375,-0.16737695038318634,0.15210533142089844,-0.2254091054201126
1667255163073582600,2.39958251953125,-0.16249002516269684,0.13500112295150757,-0.21930044889450073
1667255163076062000,2.40206201171875,-0.15699224174022675,0.11606431007385254,-0.21135921776294708
1667255163078541000,2.404541015625,-0.1484401375055313,0.09651663154363632,-0.20280711352825165
1667255163081020400,2.4070205078125,-0.143553227186203,0.07574722915887833,-0.19242240488529205
1667255163083499500,2.40949951171875,-0.13988803327083588,0.05253437161445618,-0.18264856934547424
1667255163085979000,2.411978759765625,-0.13683371245861053,0.02932151034474373,-0.17287473380565643
1667255163088458200,2.414458251953125,-0.13622283935546875,0.0030543238390237093,-0.16310089826583862
1667255163090937300,2.416937255859375,-0.13500112295150757,-0.021991131827235222,-0.15515965223312378
1667255163093416700,2.419416748046875,-0.13988803327083588,-0.04825831577181816,-0.14721840620040894
1667255163095896000,2.42189599609375,-0.14233149588108063,-0.07452550530433655,-0.14172062277793884
1667255163098375200,2.424375244140625,-0.14538581669330597,-0.09896009415388107,-0.13927717506885529
1667255163100854500,2.4268544921875,-0.1490510106086731,-0.1233946830034256,-0.13439024984836578
1667255163103333600,2.429333740234375,-0.1545487940311432,-0.14599667489528656,-0.13255766034126282
1667255163105813000,2.43181298828125,-0.15760311484336853,-0.164322629570961,-0.13133592903614044
1667255163108292400,2.434292236328125,-0.16126830875873566,-0.18264856934547424,-0.12950333952903748
1667255163110771500,2.436771484375,-0.1649334877729416,-0.19608759880065918,-0.1282816082239151
1667255163113250800,2.439250732421875,-0.16737695038318634,-0.2052505612373352,-0.12950333952903748
1667255163115730200,2.441730224609375,-0.17287473380565643,-0.21135921776294708,-0.1331685185432434
1667255163118209300,2.444209228515625,-0.17776164412498474,-0.2101374864578247,-0.13683371245861053
1667255163120688600,2.446688720703125,-0.18264856934547424,-0.205861434340477,-0.14172062277793884
1667255163123168000,2.44916796875,-0.18692462146282196,-0.19853104650974274,-0.15088360011577606
1667255163125647000,2.451647216796875,-0.18875721096992493,-0.19242240488529205,-0.1637117564678192
1667255163128126500,2.45412646484375,-0.1899789422750473,-0.18753549456596375,-0.1795942485332489
1667255163130605600,2.45660546875,-0.18875721096992493,-0.18325942754745483,-0.19730933010578156
1667255163133085000,2.4590849609375,-0.18753549456596375,-0.1795942485332489,-0.21685700118541718
1667255163135564300,2.461564208984375,-0.1844811588525772,-0.17715078592300415,-0.23884813487529755
1667255163138043400,2.46404345703125,-0.1802051067352295,-0.1747073233127594,-0.258395791053772
1667255163140522800,2.466522705078125,-0.17715078592300415,-0.17104214429855347,-0.2779434621334076
1667255163143002000,2.469002197265625,-0.1740964651107788,-0.16554436087608337,-0.2981020212173462
1667255163145481200,2.471481201171875,-0.17348559200763702,-0.15577052533626556,-0.31642794609069824
1667255163147960600,2.473960693359375,-0.1740964651107788,-0.143553227186203,-0.33047783374786377
1667255163150439700,2.476439697265625,-0.17531819641590118,-0.12950333952903748,-0.3445277214050293
1667255163152919000,2.4789189453125,-0.17653992772102356,-0.11362084746360779,-0.35735589265823364
1667255163155398400,2.4813984375,-0.17776164412498474,-0.09407317638397217,-0.36835145950317383
1667255163157877500,2.48387744140625,-0.17653992772102356,-0.07452550530433655,-0.3805687427520752
1667255163160356900,2.48635693359375,-0.17287473380565643,-0.05558869615197182,-0.3915643095970154
1667255163162836200,2.488836181640625,-0.16737695038318634,-0.037262752652168274,-0.40378162264823914
1667255163165315300,2.4913154296875,-0.15821397304534912,-0.021380268037319183,-0.41355544328689575
1667255163167794700,2.493794677734375,-0.14721840620040894,-0.010384701192378998,-0.42394015192985535
1667255163170274000,2.496274169921875,-0.13561198115348816,-0.000610864779446274,-0.4324922561645508
1667255163172753200,2.498753173828125,-0.1233946830034256,0.004276053514331579,-0.43921178579330444
1667255163175232500,2.501232421875,-0.11178825795650482,0.007330377586185932,-0.44409868121147156
1667255163177711600,2.503711669921875,-0.10140355676412582,0.009773836471140385,-0.4428769648075104
1667255163180191000,2.50619091796875,-0.09162971377372742,0.010995565913617611,-0.43982264399528503
1667255163182670300,2.50867041015625,-0.08124501258134842,0.010384701192378998,-0.43432486057281494
1667255163185149400,2.5111494140625,-0.07086031138896942,0.003665188793092966,-0.4263836145401001
1667255163187628800,2.51362890625,-0.06047561392188072,-0.006108647678047419,-0.4153880476951599
1667255163190108200,2.516108154296875,-0.049480047076940536,-0.020769402384757996,-0.4007273018360138
1667255163192587300,2.518587158203125,-0.03909534588456154,-0.03909534588456154,-0.3854556679725647
1667255163195066600,2.521066650390625,-0.02871064469218254,-0.06108647957444191,-0.36774060130119324
1667255163197545700,2.523545654296875,-0.018325943499803543,-0.08552107214927673,-0.3494146466255188
1667255163200025000,2.526025146484375,-0.010384701192378998,-0.11239911615848541,-0.32681265473365784
1667255163202504400,2.52850439453125,-0.004276053514331579,-0.1386663019657135,-0.3042106628417969
1667255163204983600,2.530983642578125,0.000610864779446274,-0.164322629570961,-0.27550002932548523
1667255163207463000,2.533462890625,0.001221729558892548,-0.18875721096992493,-0.2467893660068512
1667255163209942300,2.5359423828125,0,-0.21135921776294708,-0.2156352698802948
1667255163212421400,2.53842138671875,-0.0054977829568088055,-0.23396120965480804,-0.18203771114349365
1667255163214900700,2.540900634765625,-0.013439024798572063,-0.2559523284435272,-0.15027274191379547
1667255163217380000,2.543380126953125,-0.023212861269712448,-0.2779434621334076,-0.11667517572641373
1667255163219859200,2.545859130859375,-0.03237583488225937,-0.2981020212173462,-0.08796452730894089
1667255163222338600,2.548338623046875,-0.04153880476951599,-0.3176496922969818,-0.05864302068948746
1667255163224817700,2.550817626953125,-0.0513126403093338,-0.33597561717033386,-0.03543015569448471
1667255163227297000,2.553297119140625,-0.06291907280683517,-0.35674503445625305,-0.011606430634856224
1667255163229776400,2.5557763671875,-0.07513637095689774,-0.3738492429256439,0.0054977829568088055
1667255163232255500,2.55825537109375,-0.08552107214927673,-0.3915643095970154,0.01893680728971958
1667255163234734800,2.56073486328125,-0.09834922850131989,-0.40744680166244507,0.034208428114652634
1667255163237214200,2.563214111328125,-0.1130099818110466,-0.4172206521034241,0.043982263654470444
1667255163239693300,2.565693359375,-0.1288924664258957,-0.4202749729156494,0.05192350596189499
1667255163242172700,2.568172607421875,-0.14660754799842834,-0.41905322670936584,0.059864748269319534
1667255163244651800,2.57065185546875,-0.16249002516269684,-0.4153880476951599,0.06291907280683517
1667255163247131100,2.573131103515625,-0.1795942485332489,-0.4050033390522003,0.06597339361906052
1667255163249610500,2.575610595703125,-0.1948658674955368,-0.3915643095970154,0.06719512492418289
1667255163252089600,2.578089599609375,-0.2052505612373352,-0.3744601011276245,0.06352993845939636
1667255163254569000,2.58056884765625,-0.2162461280822754,-0.3543015718460083,0.06047561392188072
1667255163257048300,2.58304833984375,-0.2254091054201126,-0.3292561173439026,0.05742128938436508
1667255163259527400,2.58552734375,-0.22968515753746033,-0.3029889166355133,0.05497783049941063
1667255163262006800,2.5880068359375,-0.23335035145282745,-0.27855435013771057,0.05742128938436508
1667255163264486100,2.590486083984375,-0.2364046722650528,-0.2516762912273407,0.05925388261675835
1667255163266965200,2.59296533203125,-0.23823726177215576,-0.22785256803035736,0.06291907280683517
1667255163269444600,2.595444580078125,-0.24312418699264526,-0.20647229254245758,0.06780599057674408
1667255163271923700,2.597923828125,-0.2461785078048706,-0.18875721096992493,0.07330377399921417
1667255163274403000,2.600403076171875,-0.24556763470172882,-0.1747073233127594,0.0824667438864708
1667255163276882400,2.60288232421875,-0.24495677649974823,-0.16249002516269684,0.09162971377372742
1667255163279361500,2.605361572265625,-0.2406807243824005,-0.1496618688106537,0.09957095980644226
1667255163281841000,2.6078408203125,-0.23335035145282745,-0.13500112295150757,0.10445787757635117
1667255163284320300,2.6103203125,-0.2211330533027649,-0.1178968995809555,0.10567960888147354
1667255163286799400,2.61279931640625,-0.20708316564559937,-0.09957095980644226,0.10445787757635117
1667255163289278700,2.61527880859375,-0.19120067358016968,-0.08368847519159317,0.10079269111156464
1667255163291757800,2.6177578125,-0.17165300250053406,-0.06902772188186646,0.09468404203653336
1667255163294237200,2.6202373046875,-0.1496618688106537,-0.056199558079242706,0.08857539296150208
1667255163296716500,2.622716552734375,-0.1288924664258957,-0.046425722539424896,0.0824667438864708
1667255163299195600,2.625195556640625,-0.11056652665138245,-0.037262752652168274,0.07635809481143951
1667255163301675000,2.627675048828125,-0.09468404203653336,-0.02932151034474373,0.07147117704153061
1667255163304154400,2.630154296875,-0.08002328872680664,-0.020158538594841957,0.07147117704153061
1667255163306633500,2.632633544921875,-0.06902772188186646,-0.013439024798572063,0.07147117704153061
1667255163309112800,2.63511279296875,-0.05925388261675835,-0.008552107028663158,0.07513637095689774
1667255163311592200,2.63759228515625,-0.05253437161445618,-0.0054977829568088055,0.08368847519159317
1667255163314071300,2.6400712890625,-0.047036588191986084,-0.006719512399286032,0.09101885557174683
1667255163316550700,2.642550537109375,-0.04276053607463837,-0.009773836471140385,0.10384701192378998
1667255163319030000,2.645030029296875,-0.04214967042207718,-0.01649334840476513,0.1178968995809555
1667255163321509000,2.647509033203125,-0.039706211537122726,-0.023823726922273636,0.13072505593299866
1667255163323988500,2.649988525390625,-0.0409279391169548,-0.036651886999607086,0.1441640853881836
1667255163326467600,2.652467529296875,-0.043982263654470444,-0.05558869615197182,0.15821397304534912
1667255163328947000,2.654947021484375,-0.043982263654470444,-0.07574722915887833,0.1692095398902893
1667255163331426300,2.65742626953125,-0.046425722539424896,-0.09651663154363632,0.18081597983837128
1667255163333905400,2.659905517578125,-0.04764745384454727,-0.12095122784376144,0.19120067358016968
1667255163336384800,2.662384765625,-0.04825831577181816,-0.1441640853881836,0.20219624042510986
1667255163338864000,2.664864013671875,-0.04581485688686371,-0.164322629570961,0.21258094906806946
1667255163341343200,2.66734326171875,-0.04153880476951599,-0.1844811588525772,0.2254091054201126
1667255163343822600,2.669822509765625,-0.037262752652168274,-0.2009745091199875,0.2370155304670334
1667255163346301700,2.6723017578125,-0.03298669680953026,-0.2156352698802948,0.25045454502105713
1667255163348781000,2.674781005859375,-0.02871064469218254,-0.23029601573944092,0.26450446248054504
1667255163351260400,2.677260498046875,-0.0256563201546669,-0.24312418699264526,0.277332603931427
1667255163353739500,2.679739501953125,-0.0256563201546669,-0.2565632164478302,0.28954991698265076
1667255163356219000,2.682218994140625,-0.02871064469218254,-0.2730565667152405,0.2981020212173462
1667255163358698200,2.6846982421875,-0.03176496922969818,-0.28954991698265076,0.30543237924575806
1667255163361177300,2.68717724609375,-0.036651886999607086,-0.30482152104377747,0.31031930446624756
1667255163363656700,2.68965673828125,-0.039706211537122726,-0.3170388340950012,0.31093016266822815
1667255163366136000,2.692135986328125,-0.040317077189683914,-0.3225366175174713,0.3121519088745117
1667255163368615200,2.694615234375,-0.040317077189683914,-0.3231474757194519,0.3084867000579834
1667255163371094500,2.697094482421875,-0.03787361457943916,-0.3194822669029236,0.3035998046398163
1667255163373573600,2.69957373046875,-0.03298669680953026,-0.31520622968673706,0.30115634202957153
1667255163376053000,2.702052978515625,-0.028099779039621353,-0.30970844626426697,0.2974911332130432
1667255163378532400,2.704532470703125,-0.020769402384757996,-0.29993459582328796,0.2938259541988373
1667255163381011500,2.707011474609375,-0.017715077847242355,-0.28954991698265076,0.29138249158859253
1667255163383490800,2.70949072265625,-0.014049889519810677,-0.28038692474365234,0.29077163338661194
1667255163385970200,2.71197021484375,-0.015271619893610477,-0.268169641494751,0.29016077518463135
1667255163388449300,2.71444921875,-0.017104214057326317,-0.2571740746498108,0.2919933497905731
1667255163390928600,2.7169287109375,-0.020158538594841957,-0.24434591829776764,0.29443681240081787
1667255163393407700,2.71940771484375,-0.024434590712189674,-0.2309068888425827,0.29565855860710144
1667255163395887000,2.72188720703125,-0.02626718580722809,-0.21868959069252014,0.2993237376213074
1667255163398366500,2.724366455078125,-0.02871064469218254,-0.20402882993221283,0.30115634202957153
1667255163400845600,2.726845458984375,-0.027488915249705315,-0.1905898153781891,0.2993237376213074
1667255163403325000,2.729324951171875,-0.027488915249705315,-0.17898337543010712,0.2981020212173462
1667255163405804300,2.73180419921875,-0.02871064469218254,-0.17104214429855347,0.2938259541988373
1667255163408283400,2.734283447265625,-0.028099779039621353,-0.16798780858516693,0.28405213356018066
1667255163410762800,2.7367626953125,-0.025045456364750862,-0.16554436087608337,0.2761108875274658
1667255163413242000,2.7392421875,-0.024434590712189674,-0.1637117564678192,0.2626718580722809
1667255163415721200,2.74172119140625,-0.023823726922273636,-0.164322629570961,0.24740023910999298
1667255163418200600,2.74420068359375,-0.024434590712189674,-0.1649334877729416,0.2315177470445633
1667255163420679700,2.7466796875,-0.025045456364750862,-0.1637117564678192,0.21319180727005005
1667255163423159000,2.749158935546875,-0.027488915249705315,-0.1594357043504715,0.19608759880065918
1667255163425638400,2.751638427734375,-0.030543239787220955,-0.15271618962287903,0.17653992772102356
1667255163428117500,2.754117431640625,-0.034208428114652634,-0.14294235408306122,0.15638138353824615
1667255163430596900,2.756596923828125,-0.03848448023200035,-0.13194678723812103,0.13683371245861053
1667255163433076200,2.759076171875,-0.043982263654470444,-0.11667517572641373,0.11728604137897491
1667255163435555300,2.761555419921875,-0.047036588191986084,-0.09957095980644226,0.0977383628487587
1667255163438034700,2.76403466796875,-0.0513126403093338,-0.07941242307424545,0.07757982611656189
1667255163440513800,2.766513671875,-0.05497783049941063,-0.05742128938436508,0.05558869615197182
1667255163442993200,2.7689931640625,-0.059864748269319534,-0.037262752652168274,0.037262752652168274
1667255163445472500,2.771472412109375,-0.06352993845939636,-0.014660755172371864,0.01893680728971958
1667255163447951600,2.77395166015625,-0.06475166976451874,0.007330377586185932,0.003665188793092966
1667255163450431000,2.776430908203125,-0.06597339361906052,0.02871064469218254,-0.009162971749901772
1667255163452910300,2.778910400390625,-0.06414080411195755,0.04825831577181816,-0.021380268037319183
1667255163455389400,2.781389404296875,-0.059864748269319534,0.06414080411195755,-0.029932374134659767
1667255163457868800,2.783868896484375,-0.05497783049941063,0.07880155742168427,-0.03543015569448471
1667255163460348000,2.786347900390625,-0.049480047076940536,0.08979712426662445,-0.040317077189683914
1667255163462827300,2.7888271484375,-0.04214967042207718,0.0922405794262886,-0.04276053607463837
1667255163465306600,2.791306640625,-0.03543015569448471,0.08796452730894089,-0.0409279391169548
1667255163467785700,2.79378564453125,-0.028099779039621353,0.0769689604640007,-0.04214967042207718
1667255163470265000,2.79626513671875,-0.020158538594841957,0.06291907280683517,-0.04214967042207718
1667255163472744400,2.798744384765625,-0.014049889519810677,0.046425722539424896,-0.039706211537122726
1667255163475223600,2.8012236328125,-0.006719512399286032,0.029932374134659767,-0.0360410213470459
1667255163477703000,2.803702880859375,0.001832594396546483,0.01282816007733345,-0.028099779039621353
1667255163480182300,2.806182373046875,0.010995565913617611,-0.002443459117785096,-0.018325943499803543
1667255163482661400,2.808661376953125,0.015271619893610477,-0.011606430634856224,-0.009162971749901772
1667255163485140700,2.811140625,0.01954767294228077,-0.017104214057326317,0.004886918235570192
1667255163487620000,2.8136201171875,0.020769402384757996,-0.020158538594841957,0.017715077847242355
1667255163490099200,2.81609912109375,0.021380268037319183,-0.021380268037319183,0.02871064469218254
1667255163492578600,2.81857861328125,0.018325943499803543,-0.020769402384757996,0.037262752652168274
1667255163495057700,2.8210576171875,0.014660755172371864,-0.020158538594841957,0.04214967042207718
1667255163497537000,2.823537109375,0.012217295356094837,-0.023212861269712448,0.04214967042207718
1667255163500016400,2.826016357421875,0.007330377586185932,-0.02932151034474373,0.03848448023200035
1667255163502495500,2.82849560546875,0.004276053514331579,-0.0360410213470459,0.029932374134659767
1667255163504974800,2.830974853515625,0.0030543238390237093,-0.04153880476951599,0.020769402384757996
1667255163507454200,2.8334541015625,-0.000610864779446274,-0.043371398001909256,0.01282816007733345
1667255163509933300,2.835933349609375,-0.004276053514331579,-0.040317077189683914,0.001832594396546483
1667255163512412700,2.83841259765625,-0.009773836471140385,-0.03787361457943916,-0.009773836471140385
1667255163514892000,2.84089208984375,-0.01649334840476513,-0.031154103577136993,-0.01954767294228077
1667255163517371100,2.84337109375,-0.023823726922273636,-0.024434590712189674,-0.027488915249705315
1667255163519850500,2.8458505859375,-0.03237583488225937,-0.015271619893610477,-0.03543015569448471
1667255163522329600,2.84832958984375,-0.04153880476951599,-0.003665188793092966,-0.04153880476951599
1667255163524809000,2.85080908203125,-0.05253437161445618,0.007941242307424545,-0.04825831577181816
1667255163527288300,2.853288330078125,-0.06414080411195755,0.021991131827235222,-0.05436696484684944
1667255163529767400,2.855767333984375,-0.07757982611656189,0.0360410213470459,-0.06352993845939636
1667255163532246800,2.858246826171875,-0.09101885557174683,0.04825831577181816,-0.07269290834665298
1667255163534726100,2.86072607421875,-0.10384701192378998,0.05803215503692627,-0.08124501258134842
1667255163537205200,2.863205322265625,-0.11667517572641373,0.05497783049941063,-0.08857539296150208
1667255163539684600,2.8656845703125,-0.12644900381565094,0.046425722539424896,-0.09468404203653336
1667255163542164000,2.8681640625,-0.13561198115348816,0.036651886999607086,-0.1026252806186676
1667255163544643000,2.87064306640625,-0.14110976457595825,0.021991131827235222,-0.1130099818110466
1667255163547122400,2.873122314453125,-0.1441640853881836,0.010384701192378998,-0.12217295914888382
1667255163549601500,2.8756015625,-0.1490510106086731,0.000610864779446274,-0.13194678723812103
1667255163552081000,2.878080810546875,-0.15027274191379547,-0.006719512399286032,-0.14049890637397766
1667255163554560300,2.880560302734375,-0.15149445831775665,-0.014660755172371864,-0.14782927930355072
1667255163557039400,2.883039306640625,-0.1490510106086731,-0.020769402384757996,-0.1539379209280014
1667255163559518700,2.885518798828125,-0.14721840620040894,-0.027488915249705315,-0.1588248461484909
1667255163561998000,2.887998046875,-0.143553227186203,-0.029932374134659767,-0.16310089826583862
1667255163564477200,2.890477294921875,-0.13744457066059113,-0.021380268037319183,-0.17043127119541168
1667255163566956500,2.89295654296875,-0.1288924664258957,-0.014660755172371864,-0.17837251722812653
1667255163569436000,2.895435791015625,-0.12217295914888382,-0.014660755172371864,-0.18203771114349365
1667255163571915000,2.8979150390625,-0.11606431007385254,-0.010995565913617611,-0.18692462146282196
1667255163574394400,2.900394287109375,-0.11606431007385254,-0.003665188793092966,-0.19181154668331146
1667255163576873500,2.90287353515625,-0.11606431007385254,0.007941242307424545,-0.19853104650974274
1667255163579352800,2.905352783203125,-0.12156209349632263,0.020769402384757996,-0.205861434340477
1667255163581832200,2.907832275390625,-0.13255766034126282,0.0360410213470459,-0.21746785938739777
1667255163584311300,2.910311279296875,-0.14294235408306122,0.04825831577181816,-0.22724169492721558
1667255163586790700,2.912790771484375,-0.15515965223312378,0.05925388261675835,-0.23945899307727814
1667255163589270000,2.91527001953125,-0.17104214429855347,0.0665842592716217,-0.25473061203956604
1667255163591749000,2.9177490234375,-0.185092031955719,0.0720820426940918,-0.26878049969673157
1667255163594228500,2.920228515625,-0.19853104650974274,0.07941242307424545,-0.28405213356018066
1667255163596707800,2.922707763671875,-0.20891575515270233,0.08796452730894089,-0.29993459582328796
1667255163599187000,2.92518701171875,-0.21685700118541718,0.10018182545900345,-0.3170388340950012
1667255163601666300,2.927666259765625,-0.22418737411499023,0.11178825795650482,-0.33169957995414734
1667255163604145400,2.9301455078125,-0.22663083672523499,0.12522727251052856,-0.3439168632030487
1667255163606624800,2.932624755859375,-0.23029601573944092,0.13927717506885529,-0.35613417625427246
1667255163609104100,2.935104248046875,-0.23212862014770508,0.1539379209280014,-0.36712974309921265
1667255163611583200,2.937583251953125,-0.23396120965480804,0.17104214429855347,-0.37751442193984985
1667255163614062600,2.9400625,-0.2364046722650528,0.1893680840730667,-0.38667741417884827
1667255163616542000,2.9425419921875,-0.23396120965480804,0.20891575515270233,-0.39400777220726013
1667255163619021000,2.94502099609375,-0.2309068888425827,0.22968515753746033,-0.401949018239975
1667255163621500400,2.94750048828125,-0.22235478460788727,0.24923282861709595,-0.40805765986442566
1667255163623979500,2.9499794921875,-0.21441353857517242,0.2675587832927704,-0.411722868680954
1667255163626459000,2.952458984375,-0.20402882993221283,0.28527384996414185,-0.411722868680954
1667255163628938200,2.954938232421875,-0.1905898153781891,0.29993459582328796,-0.411722868680954
1667255163631417300,2.957417236328125,-0.17776164412498474,0.3127627670764923,-0.41294458508491516
1667255163633896700,2.959896728515625,-0.1692095398902893,0.318871408700943,-0.4098902642726898
1667255163636376000,2.9623759765625,-0.16004657745361328,0.32009315490722656,-0.40866854786872864
1667255163638855200,2.964855224609375,-0.15638138353824615,0.31642794609069824,-0.40744680166244507
1667255163641334500,2.96733447265625,-0.15210533142089844,0.3042106628417969,-0.4013381600379944
1667255163643814000,2.96981396484375,-0.15149445831775665,0.2883281707763672,-0.39767298102378845
1667255163646293000,2.97229296875,-0.1496618688106537,0.26878049969673157,-0.3897317349910736
1667255163648772400,2.9747724609375,-0.14721840620040894,0.24312418699264526,-0.3799578845500946
1667255163651251500,2.97725146484375,-0.14660754799842834,0.21319180727005005,-0.36835145950317383
1667255163653730800,2.979730712890625,-0.1441640853881836,0.17898337543010712,-0.3549124300479889
1667255163656210200,2.982210205078125,-0.14233149588108063,0.143553227186203,-0.33536475896835327
1667255163658689300,2.984689208984375,-0.13988803327083588,0.10567960888147354,-0.31031930446624756
1667255163661168600,2.987168701171875,-0.13561198115348816,0.06475166976451874,-0.28588470816612244
1667255163663648000,2.98964794921875,-0.13072505593299866,0.02260199747979641,-0.2516762912273407
1667255163666127000,2.992127197265625,-0.12400554865598679,-0.021380268037319183,-0.21930044889450073
1667255163668606500,2.9946064453125,-0.12034036219120026,-0.06230820715427399,-0.18264856934547424
1667255163671085800,2.9970859375,-0.11667517572641373,-0.10323614627122879,-0.14660754799842834
1667255163673565000,2.99956494140625,-0.11423171311616898,-0.14110976457595825,-0.11117739230394363
1667255163676044300,3.002044189453125,-0.1130099818110466,-0.17776164412498474,-0.07574722915887833
1667255163678523600,3.004523681640625,-0.11117739230394363,-0.21258094906806946,-0.043982263654470444
1667255163681002800,3.007002685546875,-0.10690133273601532,-0.24556763470172882,-0.012217295356094837
1667255163683482000,3.009482177734375,-0.10445787757635117,-0.27488914132118225,0.014049889519810677
1667255163685961200,3.011961181640625,-0.10201441496610641,-0.30482152104377747,0.03787361457943916
1667255163688440600,3.014440673828125,-0.10018182545900345,-0.33169957995414734,0.05925388261675835
1667255163690920000,3.016919921875,-0.09896009415388107,-0.3530798554420471,0.0769689604640007
1667255163693399000,3.01939892578125,-0.10201441496610641,-0.3689623177051544,0.09101885557174683
1667255163695878400,3.02187841796875,-0.10445787757635117,-0.3799578845500946,0.10201441496610641
1667255163698357800,3.024357666015625,-0.10934479534626007,-0.3811796307563782,0.11117739230394363
1667255163700836900,3.0268369140625,-0.1130099818110466,-0.3750709891319275,0.11545344442129135
1667255163703316200,3.029316162109375,-0.1185077652335167,-0.3634645342826843,0.1178968995809555
1667255163705795600,3.031795654296875,-0.12400554865598679,-0.34574946761131287,0.11667517572641373
1667255163708274700,3.034274658203125,-0.13072505593299866,-0.3280344009399414,0.11239911615848541
1667255163710754000,3.036754150390625,-0.13683371245861053,-0.3078758418560028,0.10751219838857651
1667255163713233400,3.0392333984375,-0.13988803327083588,-0.287106454372406,0.09529490768909454
1667255163715712500,3.04171240234375,-0.14538581669330597,-0.2657261788845062,0.08063415437936783
1667255163718191900,3.04419189453125,-0.15088360011577606,-0.24495677649974823,0.06414080411195755
