time,seconds_elapsed,z,y,x
1667255160676135400,0.002135498046875,0.4289034307003021,-0.2012035846710205,0.8712459206581116
1667255160678614800,0.00461474609375,0.4508945643901825,-0.1810450553894043,0.8883501291275024
1667255160681094100,0.00709423828125,0.474718302488327,-0.16332997381687164,0.9085086584091187
1667255160683573200,0.0095732421875,0.507094144821167,-0.15722131729125977,0.9256128668785095
1667255160686052600,0.012052490234375,0.5834522247314453,-0.2372446060180664,0.9280562996864319
1667255160688531700,0.01453173828125,0.6756927967071533,-0.3508654534816742,0.9268345832824707
1667255160691011000,0.017010986328125,0.7691551446914673,-0.45654505491256714,0.9390518665313721
1667255160693490400,0.019490478515625,0.85834139585495,-0.5304597020149231,0.9677625298500061
1667255160695969500,0.021969482421875,0.9359211921691895,-0.5793288946151733,1.0068578720092773
1667255160698449000,0.024448974609375,0.9933425188064575,-0.6159807443618774,1.0569487810134888
1667255160700928300,0.02692822265625,1.0263291597366333,-0.649578332901001,1.1192569732666016
1667255160703407400,0.029407470703125,1.035492181777954,-0.6807324290275574,1.1833977699279785
1667255160705886700,0.03188671875,1.0220531225204468,-0.7179951667785645,1.2499819993972778
1667255160708365800,0.03436572265625,0.9902881383895874,-0.7723621726036072,1.317788004875183
1667255160710845200,0.03684521484375,0.9518036842346191,-0.8511636853218079,1.3813179731369019
1667255160713324500,0.039324462890625,0.9041562080383301,-0.9489020705223083,1.447291374206543
1667255160715803600,0.0418037109375,0.8565087914466858,-1.0606902837753296,1.5120429992675781
1667255160718283000,0.044282958984375,0.8076395988464355,-1.1773655414581299,1.577405571937561
1667255160720762400,0.046762451171875,0.7624356150627136,-1.305036187171936,1.640324592590332
1667255160723241500,0.049241455078125,0.7233402729034424,-1.4467568397521973,1.7038545608520508
1667255160725720800,0.051720947265625,0.6934078931808472,-1.5872557163238525,1.7692171335220337
1667255160728200000,0.054199951171875,0.6775254011154175,-1.7320307493209839,1.8315253257751465
1667255160730679300,0.05667919921875,0.6744710803031921,-1.8755840063095093,1.8968878984451294
1667255160733158700,0.05915869140625,0.681801438331604,-2.0142502784729004,1.9616395235061646
1667255160735637800,0.0616376953125,0.6995165348052979,-2.1541383266448975,2.028834581375122
1667255160738117000,0.0641171875,0.7257837057113647,-2.295248031616211,2.090532064437866
1667255160740596200,0.06659619140625,0.7581595778465271,-2.4363577365875244,2.1497857570648193
1667255160743075600,0.06907568359375,0.7978657484054565,-2.5902957916259766,2.2084288597106934
1667255160745555000,0.071554931640625,0.8418480157852173,-2.8089852333068848,2.257297992706299
1667255160748034000,0.074033935546875,0.8901063203811646,-3.1357979774475098,2.2872304916381836
1667255160750513400,0.076513427734375,0.9243147969245911,-3.416184902191162,2.31044340133667
1667255160752992800,0.07899267578125,0.9359211921691895,-3.6153268814086914,2.3428192138671875
1667255160755472000,0.081471923828125,0.9145409464836121,-3.829129457473755,2.3703081607818604
1667255160757951200,0.083951171875,0.8681151866912842,-4.023995399475098,2.3935208320617676
1667255160760430300,0.086430419921875,0.7825941443443298,-4.133951187133789,2.411846876144409
1667255160762909700,0.08890966796875,0.663475513458252,-4.157774925231934,2.4326162338256836
1667255160765389000,0.09138916015625,0.5052615404129028,-4.074697017669678,2.450331449508667
1667255160767868200,0.0938681640625,0.3110065162181854,-3.851731538772583,2.4631595611572266
1667255160770347500,0.096347412109375,0.09476039558649063,-3.4674975872039795,2.4711008071899414
1667255160772827000,0.098826904296875,-0.12759438157081604,-2.9586472511291504,2.4637703895568848
1667255160775306000,0.101305908203125,-0.3340666890144348,-2.356945276260376,2.4295618534088135
1667255160777785300,0.103785400390625,-0.4886154532432556,-1.7094286680221558,2.3568689823150635
1667255160780264400,0.106264404296875,-0.5558105707168579,-1.1095595359802246,2.229809045791626
1667255160782743800,0.108743896484375,-0.5270999670028687,-0.6349175572395325,2.0441062450408936
1667255160785223200,0.11122314453125,-0.4067595899105072,-0.2903898358345032,1.8028147220611572
1667255160787702300,0.113702392578125,-0.2216675579547882,-0.043600473552942276,1.5218168497085571
1667255160790181600,0.116181640625,-0.00603228947147727,0.14637847244739532,1.2102758884429932
1667255160792660700,0.11866064453125,0.2047160565853119,0.3125337064266205,0.8883501291275024
1667255160795140000,0.12114013671875,0.38614290952682495,0.47502371668815613,0.5743656158447266
1667255160797619500,0.123619384765625,0.5168679356575012,0.6497310400009155,0.2860374450683594
1667255160800098600,0.1260986328125,0.5938369035720825,0.8409317135810852,0.033139415085315704
1667255160802578000,0.128577880859375,0.6188823580741882,1.040684461593628,-0.18066325783729553
1667255160805057300,0.131057373046875,0.6005564332008362,1.247767686843872,-0.35414886474609375
1667255160807536400,0.133536376953125,0.5529089570045471,1.4462987184524536,-0.4903717041015625
1667255160810015700,0.136015625,0.4906007647514343,1.616729974746704,-0.5991056561470032
1667255160812494800,0.138494873046875,0.41668614745140076,1.754785418510437,-0.6809614896774292
1667255160814974200,0.14097412109375,0.343993216753006,1.8616868257522583,-0.7420479655265808
1667255160817453600,0.14345361328125,0.2804632782936096,1.9423209428787231,-0.7841976881027222
1667255160819932700,0.1459326171875,0.2303723841905594,1.996687889099121,-0.8080213665962219
1667255160822412000,0.148412109375,0.19738568365573883,2.030285358428955,-0.8196278214454651
1667255160824891100,0.15089111328125,0.17967060208320618,2.0486114025115967,-0.8239038586616516
1667255160827370500,0.15337060546875,0.1729510873556137,2.0565526485443115,-0.8153517842292786
1667255160829849900,0.155849853515625,0.17111849784851074,2.0620503425598145,-0.8055779337882996
1667255160832329000,0.158328857421875,0.16989676654338837,2.080376386642456,-0.7982475757598877
1667255160834808300,0.160808349609375,0.16500984132289886,2.11397385597229,-0.7970257997512817
1667255160837287700,0.16328759765625,0.15401428937911987,2.1713953018188477,-0.8086322546005249
1667255160839766800,0.165766845703125,0.13813179731369019,2.2416446208953857,-0.8336777091026306
1667255160842246100,0.16824609375,0.11614066362380981,2.325943946838379,-0.8672752976417542
1667255160844725200,0.170725341796875,0.08681915700435638,2.4169628620147705,-0.9167553186416626
1667255160847204600,0.17320458984375,0.050778135657310486,2.4945425987243652,-0.9711222648620605
1667255160849684000,0.17568408203125,0.01779143698513508,2.533027172088623,-1.021213173866272
1667255160852163000,0.1781630859375,-0.013362666592001915,2.5794529914855957,-1.0706932544708252
1667255160854642400,0.180642333984375,-0.03779725730419159,2.636263370513916,-1.1281145811080933
1667255160857121800,0.183121826171875,-0.05917752534151077,2.6845216751098633,-1.1830923557281494
1667255160859601000,0.185600830078125,-0.08239039033651352,2.7236170768737793,-1.2325724363327026
1667255160862080300,0.188080322265625,-0.11049016565084457,2.7498841285705566,-1.2783873081207275
1667255160864559400,0.190559326171875,-0.14164426922798157,2.759658098220825,-1.3150391578674316
1667255160867038700,0.193038818359375,-0.17768529057502747,2.753549337387085,-1.337030291557312
1667255160869518000,0.19551806640625,-0.21311545372009277,2.7211735248565674,-1.345582365989685
1667255160871997200,0.1979970703125,-0.2479347437620163,2.6606979370117188,-1.3394737243652344
1667255160874476500,0.2004765625,-0.2796997129917145,2.5727334022521973,-1.3156499862670898
1667255160876956000,0.202955810546875,-0.30718863010406494,2.4536147117614746,-1.2735003232955933
1667255160879435000,0.20543505859375,-0.3297906219959259,2.3057854175567627,-1.2142465114593506
1667255160881914400,0.207914306640625,-0.34750568866729736,2.13901948928833,-1.1366666555404663
1667255160884393500,0.2103935546875,-0.35850125551223755,1.949040412902832,-1.0413717031478882
1667255160886872800,0.212872802734375,-0.36277732253074646,1.746233344078064,-0.9344704151153564
1667255160889352200,0.215352294921875,-0.3652207851409912,1.540982723236084,-0.8141300082206726
1667255160891831300,0.217831298828125,-0.367053359746933,1.3375648260116577,-0.6846266984939575
1667255160894310700,0.220310546875,-0.36827510595321655,1.143920660018921,-0.54962557554245
1667255160896790000,0.2227900390625,-0.3707185685634613,0.9588286280632019,-0.4127918779850006
1667255160899269000,0.22526904296875,-0.37316203117370605,0.7792344093322754,-0.27717989683151245
1667255160901748500,0.22774853515625,-0.37316203117370605,0.6088030934333801,-0.145843967795372
1667255160904227600,0.2302275390625,-0.36766424775123596,0.45303258299827576,-0.02367101050913334
1667255160906707000,0.23270703125,-0.35850125551223755,0.307646781206131,0.09056070446968079
1667255160909186300,0.235186279296875,-0.3462839722633362,0.17020219564437866,0.18890993297100067
1667255160911665400,0.23766552734375,-0.33345580101013184,0.043753188103437424,0.2750418782234192
1667255160914144800,0.240144775390625,-0.31757333874702454,-0.06620246917009354,0.3459021747112274
1667255160916624100,0.2426240234375,-0.303523451089859,-0.1608865112066269,0.40149086713790894
1667255160919103200,0.245103271484375,-0.29130613803863525,-0.2421315312385559,0.4387536346912384
1667255160921582600,0.24758251953125,-0.2827540338039398,-0.31177011132240295,0.4601338803768158
1667255160924061700,0.250061767578125,-0.2790888547897339,-0.36919140815734863,0.46746426820755005
1667255160926541000,0.252541015625,-0.2784779667854309,-0.4156171381473541,0.46135562658309937
1667255160929020400,0.2550205078125,-0.2796997129917145,-0.4522690176963806,0.44669488072395325
1667255160931499500,0.25749951171875,-0.2827540338039398,-0.4693732261657715,0.4222602844238281
1667255160933979000,0.259978759765625,-0.2876409590244293,-0.4675406217575073,0.38927358388900757
1667255160936458000,0.2624580078125,-0.29130613803863525,-0.45104727149009705,0.3520108163356781
1667255160938937300,0.264937255859375,-0.29619306325912476,-0.42478010058403015,0.31291547417640686
1667255160941416700,0.267416748046875,-0.3004691004753113,-0.390571653842926,0.2695440948009491
1667255160943895800,0.269895751953125,-0.303523451089859,-0.3508654534816742,0.22556181252002716
1667255160946375200,0.272375244140625,-0.30291256308555603,-0.3099375069141388,0.18096868693828583
1667255160948854300,0.274854248046875,-0.2992473840713501,-0.2671769857406616,0.14004075527191162
1667255160951333600,0.277333740234375,-0.2876409590244293,-0.22502730786800385,0.09605848789215088
1667255160953813000,0.27981298828125,-0.27114760875701904,-0.17493639886379242,0.05329795181751251
1667255160956292000,0.2822919921875,-0.24976733326911926,-0.114460788667202,0.011759147047996521
1667255160958771500,0.284771484375,-0.2222784161567688,-0.046654798090457916,-0.027947064489126205
1667255160961250800,0.287250732421875,-0.19356778264045715,0.016875140368938446,-0.06765327602624893
1667255160963730000,0.28972998046875,-0.1599702090024948,0.07307469844818115,-0.10247256606817245
1667255160966209300,0.292209228515625,-0.12637265026569366,0.11461350321769714,-0.13790272176265717
1667255160968688400,0.2946884765625,-0.09216422587633133,0.14393500983715057,-0.16966769099235535
1667255160971167700,0.297167724609375,-0.06039925664663315,0.16103923320770264,-0.19593487679958344
1667255160973647000,0.299647216796875,-0.03107774630188942,0.1726456582546234,-0.21975859999656677
1667255160976126200,0.302126220703125,-0.0011453714687377214,0.18730641901493073,-0.23991714417934418
1667255160978605600,0.30460546875,0.02756527252495289,0.21174100041389465,-0.25152358412742615
1667255160981084700,0.307084716796875,0.05627591907978058,0.24594943225383759,-0.26251915097236633
1667255160983564000,0.30956396484375,0.08009964227676392,0.28809911012649536,-0.2741255760192871
1667255160986043400,0.31204345703125,0.10270164161920547,0.33085963129997253,-0.2857320010662079
1667255160988522500,0.3145224609375,0.11919499188661575,0.3785070776939392,-0.3016144931316376
1667255160991001900,0.317001953125,0.1320231556892395,0.42310020327568054,-0.31871870160102844
1667255160993481200,0.319481201171875,0.13568833470344543,0.4615846872329712,-0.3413206934928894
1667255160995960300,0.321960205078125,0.13507747650146484,0.48968449234962463,-0.37003132700920105
1667255160998439700,0.324439697265625,0.1222493126988411,0.5055669546127319,-0.40546149015426636
1667255161000919000,0.3269189453125,0.10331250727176666,0.5165625214576721,-0.44089165329933167
1667255161003398100,0.329398193359375,0.07887791097164154,0.5306124091148376,-0.476321816444397
1667255161005877500,0.33187744140625,0.054443322122097015,0.543440580368042,-0.503810703754425
1667255161008356600,0.334356689453125,0.026343543082475662,0.5477166175842285,-0.5233584046363831
1667255161010836000,0.3368359375,-0.0035888305865228176,0.5574904680252075,-0.5367974042892456
1667255161013315300,0.3393154296875,-0.03657552972435951,0.5568795800209045,-0.5416843295097351
1667255161015794400,0.34179443359375,-0.07078395783901215,0.5391645431518555,-0.5386300086975098
1667255161018273800,0.344273681640625,-0.11049016565084457,0.5257254838943481,-0.5288561582565308
1667255161020753200,0.346753173828125,-0.15263983607292175,0.5092321634292603,-0.5074759125709534
1667255161023232300,0.349232177734375,-0.19417864084243774,0.4860192835330963,-0.4757109582424164
1667255161025711600,0.351711669921875,-0.23449571430683136,0.43898269534111023,-0.443945974111557
1667255161028190700,0.354190673828125,-0.27542364597320557,0.3827831447124481,-0.4017963111400604
1667255161030670000,0.356670166015625,-0.31696245074272156,0.3174206018447876,-0.3584249019622803
1667255161033149400,0.3591494140625,-0.3548360764980316,0.2447277009487152,-0.31322091817855835
1667255161035628500,0.361628662109375,-0.39332056045532227,0.1689804643392563,-0.26190826296806335
1667255161038108000,0.36410791015625,-0.42997244000434875,0.09812015295028687,-0.20998476445674896
1667255161040587000,0.3665869140625,-0.46662431955337524,0.033979352563619614,-0.15745039284229279
1667255161043066400,0.36906640625,-0.5026653409004211,-0.03810269013047218,-0.1000291109085083
1667255161045545700,0.371545654296875,-0.5368737578392029,-0.11873684078454971,-0.04627300798892975
1667255161048024800,0.37402490234375,-0.5668061375617981,-0.20303617417812347,0.008704823441803455
1667255161050504200,0.376504150390625,-0.594295084476471,-0.2745073735713959,0.0691804364323616
1667255161052983600,0.378983642578125,-0.612621009349823,-0.3441459536552429,0.1302669197320938
1667255161055462700,0.381462646484375,-0.6272817850112915,-0.4162279963493347,0.19013166427612305
1667255161057942000,0.38394189453125,-0.632168710231781,-0.4889208972454071,0.25121814012527466
1667255161060421000,0.386421142578125,-0.6358338594436646,-0.5616137981414795,0.3104720115661621
1667255161062900500,0.388900390625,-0.6376664638519287,-0.6343067288398743,0.37033677101135254
1667255161065379800,0.3913798828125,-0.6370556354522705,-0.7051670551300049,0.43142324686050415
1667255161067859000,0.39385888671875,-0.6340012550354004,-0.7631992101669312,0.49250972270965576
1667255161070338300,0.39633837890625,-0.621783971786499,-0.8114575147628784,0.5548179149627686
1667255161072817400,0.3988173828125,-0.6010146141052246,-0.8566614985466003,0.6073523163795471
1667255161075296800,0.401296875,-0.5759690999984741,-0.8988111615180969,0.6519454121589661
1667255161077776100,0.403776123046875,-0.5423715710639954,-0.9434043169021606,0.6885973215103149
1667255161080255200,0.406255126953125,-0.5087739825248718,-0.9910517334938049,0.7154753804206848
1667255161082734600,0.408734619140625,-0.4739547073841095,-1.036866545677185,0.726470947265625
1667255161085213700,0.411213623046875,-0.44157886505126953,-1.0832923650741577,0.7313578724861145
1667255161087693000,0.413693115234375,-0.4116465151309967,-1.1193333864212036,0.7240274548530579
1667255161090172400,0.41617236328125,-0.37988153100013733,-1.1407135725021362,0.7142536640167236
1667255161092651500,0.418651611328125,-0.34811657667160034,-1.151098370552063,0.6940951347351074
1667255161095131000,0.421130859375,-0.3145190179347992,-1.1517091989517212,0.6666061878204346
1667255161097610200,0.4236103515625,-0.27603453397750854,-1.1462113857269287,0.6354520916938782
1667255161100089300,0.42608935546875,-0.23144139349460602,-1.1352158784866333,0.5981893539428711
1667255161102568700,0.428568603515625,-0.18196134269237518,-1.1254420280456543,0.5554288029670715
1667255161105047800,0.4310478515625,-0.13125957548618317,-1.1156681776046753,0.5138899683952332
1667255161107527200,0.433527099609375,-0.07933606207370758,-1.103450894355774,0.47296205163002014
1667255161110006500,0.436006591796875,-0.032910339534282684,-1.0900118350982666,0.43569931387901306
1667255161112485600,0.438485595703125,0.00679587060585618,-1.0729076862335205,0.40576693415641785
1667255161114965000,0.440965087890625,0.041004300117492676,-1.04786217212677,0.378888875246048
1667255161117444400,0.4434443359375,0.06788235157728195,-1.0301470756530762,0.3575085997581482
1667255161119923500,0.44592333984375,0.09048434346914291,-1.0234276056289673,0.3416261374950409
1667255161122402800,0.44840283203125,0.10392337292432785,-1.029536247253418,0.3312414288520813
1667255161124882000,0.4508818359375,0.10942115634679794,-1.0399209260940552,0.3251327872276306
1667255161127361300,0.453361328125,0.10453423857688904,-1.0423643589019775,0.3318522870540619
1667255161129840600,0.455840576171875,0.09170607477426529,-1.036866545677185,0.34345871210098267
1667255161132319700,0.45831982421875,0.07276926934719086,-1.038088321685791,0.3526217043399811
1667255161134799000,0.460799072265625,0.04833467677235603,-1.029536247253418,0.3605629503726959
1667255161137278500,0.463278564453125,0.012904518283903599,-0.9904409050941467,0.37400195002555847
1667255161139757600,0.465757568359375,-0.03962985426187515,-0.9226348996162415,0.3917170464992523
1667255161142237000,0.46823681640625,-0.1037706509232521,-0.8505528569221497,0.4124864339828491
1667255161144716000,0.470716064453125,-0.17524182796478271,-0.8004619479179382,0.43081238865852356
1667255161147195400,0.4731953125,-0.24365869164466858,-0.7741947770118713,0.448527455329895
1667255161149674800,0.4756748046875,-0.2986365258693695,-0.7631992101669312,0.4644099473953247
1667255161152153900,0.47815380859375,-0.33223408460617065,-0.7552579641342163,0.47723811864852905
1667255161154633200,0.48063330078125,-0.3456731140613556,-0.741818904876709,0.4839576184749603
1667255161157112600,0.483112548828125,-0.3413970470428467,-0.7198277711868286,0.4851793646812439
1667255161159591700,0.485591796875,-0.3206276595592499,-0.6941714882850647,0.480903297662735
1667255161162071000,0.488071044921875,-0.2949713170528412,-0.6636282205581665,0.47235119342803955
1667255161164550100,0.490550048828125,-0.26626068353652954,-0.6294198036193848,0.4589121639728546
1667255161167029500,0.493029541015625,-0.24121522903442383,-0.5988765358924866,0.44669488072395325
1667255161169508900,0.4955087890625,-0.22044582664966583,-0.576274573802948,0.4344775676727295
1667255161171988000,0.497988037109375,-0.20273074507713318,-0.5640572905540466,0.42592546343803406
1667255161174467300,0.50046728515625,-0.1862373948097229,-0.5616137981414795,0.42042768001556396
1667255161176946400,0.502946533203125,-0.16730059683322906,-0.5652790069580078,0.41676250100135803
1667255161179425800,0.50542578125,-0.14653119444847107,-0.5695550441741943,0.41126471757888794
1667255161181905200,0.5079052734375,-0.1245400533080101,-0.5744419693946838,0.41004297137260437
1667255161184384300,0.51038427734375,-0.09644027799367905,-0.5793288946151733,0.40515607595443726
1667255161186863600,0.512863525390625,-0.06956222653388977,-0.5646681189537048,0.4039343297481537
1667255161189342700,0.5153427734375,-0.04696023091673851,-0.5225184559822083,0.4143190383911133
1667255161191822000,0.517822021484375,-0.030466880649328232,-0.4534907341003418,0.4326449930667877
1667255161194301400,0.520301513671875,-0.023747367784380913,-0.36430448293685913,0.4558578431606293
1667255161196780500,0.522780517578125,-0.023747367784380913,-0.27084216475486755,0.4845684766769409
1667255161199260000,0.525260009765625,-0.029856016859412193,-0.17982332408428192,0.5145008563995361
1667255161201739300,0.5277392578125,-0.03413207083940506,-0.09735657274723053,0.5438223481178284
1667255161204218400,0.53021826171875,-0.04146244749426842,-0.028328854590654373,0.5682569742202759
1667255161206697700,0.53269775390625,-0.045738499611616135,0.027259841561317444,0.5865828990936279
1667255161209176800,0.5351767578125,-0.05367974191904068,0.07002037763595581,0.6000219583511353
1667255161211656200,0.53765625,-0.06039925664663315,0.10361793637275696,0.6073523163795471
1667255161214135600,0.540135498046875,-0.07444914430379868,0.131717711687088,0.60490882396698
1667255161216614700,0.54261474609375,-0.08910989761352539,0.15554144978523254,0.6000219583511353
1667255161219094000,0.545093994140625,-0.11110103130340576,0.1530979871749878,0.5951350331306458
1667255161221573000,0.547572998046875,-0.12148573249578476,0.07857248187065125,0.6079631447792053
1667255161224052500,0.550052490234375,-0.1251509189605713,0.03581194952130318,0.6116283535957336
1667255161226531800,0.55253173828125,-0.13064870238304138,0.02237292192876339,0.6012436747550964
1667255161229011000,0.555010986328125,-0.14653119444847107,0.0022143847309052944,0.5884155035018921
1667255161231490300,0.557490234375,-0.17463096976280212,-0.017944153398275375,0.5737547278404236
1667255161233969700,0.5599697265625,-0.21372631192207336,-0.03871355578303337,0.5584831237792969
1667255161236448800,0.56244873046875,-0.26015204191207886,-0.06559160351753235,0.5487092733383179
1667255161238928100,0.56492822265625,-0.3047451674938202,-0.10651954263448715,0.5395463109016418
1667255161241407200,0.5674072265625,-0.34384050965309143,-0.16210824251174927,0.5401571989059448
1667255161243886600,0.569886474609375,-0.37377288937568665,-0.23052509129047394,0.5456549525260925
1667255161246366000,0.572365966796875,-0.39332056045532227,-0.2995528280735016,0.5542070865631104
1667255161248845000,0.574844970703125,-0.40553784370422363,-0.36430448293685913,0.5694786906242371
1667255161251324400,0.577324462890625,-0.4110356271266937,-0.41989317536354065,0.5865828990936279
1667255161253803800,0.5798037109375,-0.4067595899105072,-0.4650971591472626,0.6067414283752441
1667255161256283000,0.582282958984375,-0.4006509482860565,-0.4993056058883667,0.6305651664733887
1667255161258762200,0.58476220703125,-0.3920988440513611,-0.5182424187660217,0.652556300163269
1667255161261241300,0.587241455078125,-0.38354671001434326,-0.5280162692070007,0.6769908666610718
1667255161263720700,0.589720703125,-0.3749946057796478,-0.5384009480476379,0.7063124179840088
1667255161266200000,0.592199951171875,-0.3664425015449524,-0.5512291193008423,0.7319687008857727
1667255161268679200,0.59467919921875,-0.3566686809062958,-0.5695550441741943,0.7570141553878784
1667255161271158500,0.597158447265625,-0.3456731140613556,-0.5933787822723389,0.7783944606781006
1667255161273638000,0.599637939453125,-0.33162322640419006,-0.6214785575866699,0.7936660647392273
1667255161276117000,0.602116943359375,-0.3181841969490051,-0.649578332901001,0.8113811612129211
1667255161278596400,0.604596435546875,-0.2949713170528412,-0.6813433170318604,0.8235984444618225
1667255161281075500,0.607075439453125,-0.2742019295692444,-0.7137191295623779,0.8358157277107239
1667255161283554800,0.609554931640625,-0.25098907947540283,-0.7436515092849731,0.8504765033721924
1667255161286034200,0.6120341796875,-0.22960880398750305,-0.7711403965950012,0.8645263910293579
1667255161288513300,0.61451318359375,-0.20761767029762268,-0.7998510599136353,0.8755219578742981
1667255161290992600,0.61699267578125,-0.18990258872509003,-0.8297834396362305,0.8852958083152771
1667255161293471700,0.6194716796875,-0.17707443237304688,-0.8639918565750122,0.8932369947433472
1667255161295951000,0.621951171875,-0.16302454471588135,-0.9061415195465088,0.8999565243721008
1667255161298430500,0.624430419921875,-0.14775292575359344,-0.9770018458366394,0.911562979221344
1667255161300909600,0.62690966796875,-0.1245400533080101,-1.0906226634979248,0.9335541129112244
1667255161303389000,0.629388916015625,-0.09644027799367905,-1.1743111610412598,0.9512691497802734
1667255161305868000,0.631867919921875,-0.06650790572166443,-1.2439497709274292,0.9585995674133301
1667255161308347400,0.634347412109375,-0.03413207083940506,-1.3227512836456299,0.9592103958129883
1667255161310826800,0.63682666015625,0.008017600513994694,-1.4039963483810425,0.9518800377845764
1667255161313305900,0.639305908203125,0.04039343446493149,-1.4589741230010986,0.9463822841644287
1667255161315785200,0.64178515625,0.06666062027215958,-1.4864630699157715,0.9463822841644287
1667255161318264600,0.6442646484375,0.08376483619213104,-1.4944043159484863,0.9500474333763123
1667255161320743700,0.64674365234375,0.0965929925441742,-1.4962369203567505,0.9543235301971436
1667255161323223000,0.64922314453125,0.1014799103140831,-1.4882956743240356,0.9610430002212524
1667255161325702100,0.6517021484375,0.10697769373655319,-1.4766892194747925,0.9708168506622314
1667255161328181500,0.654181396484375,0.10819942504167557,-1.4663045406341553,0.9818124175071716
1667255161330660900,0.656660888671875,0.10942115634679794,-1.4608067274093628,0.9903645515441895
1667255161333140000,0.659139892578125,0.11308634281158447,-1.4650827646255493,0.9976949095726013
1667255161335619300,0.661619384765625,0.12102758139371872,-1.4748566150665283,1.0038034915924072
1667255161338098400,0.664098388671875,0.13141228258609772,-1.4840196371078491,1.0080796480178833
1667255161340577800,0.666577880859375,0.1430187225341797,-1.4937934875488281,1.0166317224502563
1667255161343057200,0.66905712890625,0.1576794683933258,-1.5053999423980713,1.0221295356750488
1667255161345536300,0.671536376953125,0.1735619604587555,-1.5139520168304443,1.0288490056991577
1667255161348015600,0.674015625,0.19127702713012695,-1.5243366956710815,1.0367902517318726
1667255161350495000,0.676494873046875,0.20777037739753723,-1.5316671133041382,1.0483967065811157
1667255161352974000,0.67897412109375,0.22243113815784454,-1.536553978919983,1.0581705570220947
1667255161355453400,0.681453369140625,0.23648102581501007,-1.5347213745117188,1.070387840270996
1667255161357932500,0.6839326171875,0.24686573445796967,-1.5310561656951904,1.0826051235198975
1667255161360412000,0.686411865234375,0.25725042819976807,-1.521282434463501,1.096655011177063
1667255161362891300,0.688891357421875,0.26274821162223816,-1.5108976364135742,1.1094831228256226
1667255161365370400,0.691370361328125,0.26763513684272766,-1.4962369203567505,1.1241439580917358
1667255161367849700,0.693849609375,0.26763513684272766,-1.4718023538589478,1.1400264501571655
1667255161370329000,0.6963291015625,0.26702427864074707,-1.43637216091156,1.1516327857971191
1667255161372808200,0.69880810546875,0.26213735342025757,-1.3844486474990845,1.1614066362380981
1667255161375287600,0.70128759765625,0.25358524918556213,-1.316031813621521,1.169347882270813
1667255161377766700,0.7037666015625,0.24381139874458313,-1.2329541444778442,1.170569658279419
1667255161380246000,0.70624609375,0.2297615110874176,-1.1370484828948975,1.1687370538711548
1667255161382725400,0.708725341796875,0.21754421293735504,-1.036866545677185,1.1614066362380981
1667255161385204500,0.71120458984375,0.1986074149608612,-0.9330195784568787,1.1449133157730103
1667255161387683800,0.713683837890625,0.17967060208320618,-0.8310051560401917,1.1186461448669434
1667255161390163000,0.716162841796875,0.15951207280158997,-0.73204505443573,1.0838267803192139
1667255161392642300,0.718642333984375,0.13568833470344543,-0.6446914076805115,1.0374010801315308
1667255161395121700,0.72112158203125,0.11247547715902328,-0.5689441561698914,0.9787580966949463
1667255161397600800,0.723600830078125,0.08987347781658173,-0.5078576803207397,0.9176716208457947
1667255161400080100,0.726080078125,0.0703258067369461,-0.46143198013305664,0.8523091077804565
1667255161402559500,0.7285595703125,0.05261072888970375,-0.422947496175766,0.7851139307022095
1667255161405038600,0.73103857421875,0.04039343446493149,-0.38934993743896484,0.7209731340408325
1667255161407518000,0.73351806640625,0.031230462715029716,-0.35941755771636963,0.6586649417877197
1667255161409997000,0.7359970703125,0.021456625312566757,-0.3337612450122833,0.5988001823425293
1667255161412476400,0.738476318359375,0.013515383005142212,-0.31177011132240295,0.5456549525260925
1667255161414955800,0.740955810546875,0.004963276442140341,-0.2940550446510315,0.4949531853199005
1667255161417435000,0.743434814453125,-0.0066431546583771706,-0.28122687339782715,0.4534143805503845
1667255161419914200,0.745914306640625,-0.018860450014472008,-0.2732856273651123,0.4179842174053192
1667255161422393300,0.748393310546875,-0.035964664071798325,-0.27145302295684814,0.38927358388900757
1667255161424872700,0.750872802734375,-0.055512335151433945,-0.2745073735713959,0.366060733795166
1667255161427352000,0.75335205078125,-0.0781143307685852,-0.2787834107875824,0.34834563732147217
1667255161429831200,0.7558310546875,-0.1043815165758133,-0.28672465682029724,0.3361283540725708
1667255161432310500,0.758310546875,-0.12759438157081604,-0.2946659028530121,0.3257436454296112
1667255161434789600,0.76078955078125,-0.15447242558002472,-0.30077454447746277,0.31902414560317993
1667255161437269000,0.76326904296875,-0.17707443237304688,-0.2977202236652374,0.3104720115661621
1667255161439748400,0.765748291015625,-0.19784383475780487,-0.2885572612285614,0.3043633699417114
1667255161442227500,0.7682275390625,-0.21311545372009277,-0.2787834107875824,0.3000873327255249
1667255161444706800,0.770706787109375,-0.22472187876701355,-0.26962044835090637,0.29397866129875183
1667255161447186200,0.773186279296875,-0.22899793088436127,-0.2641226649284363,0.2890917658805847
1667255161449665300,0.775665283203125,-0.22899793088436127,-0.26106834411621094,0.2860374450683594
1667255161452144600,0.77814453125,-0.2216675579547882,-0.2629009187221527,0.28298309445381165
1667255161454623700,0.780623779296875,-0.20945025980472565,-0.26656612753868103,0.28237223625183105
1667255161457103000,0.78310302734375,-0.19723296165466309,-0.2690095901489258,0.2793179154396057
1667255161459582500,0.78558251953125,-0.18806999921798706,-0.2677878439426422,0.2799287736415863
1667255161462061600,0.7880615234375,-0.18196134269237518,-0.26962044835090637,0.2799287736415863
1667255161464541000,0.790541015625,-0.17829616367816925,-0.2690095901489258,0.2811505198478699
1667255161467020300,0.793020263671875,-0.1813504844903946,-0.27145302295684814,0.28237223625183105
1667255161469499400,0.79549951171875,-0.18745912611484528,-0.2745073735713959,0.28237223625183105
1667255161471978800,0.797978759765625,-0.1960112303495407,-0.28122687339782715,0.27687445282936096
1667255161474457900,0.800457763671875,-0.20822852849960327,-0.29222244024276733,0.27320927381515503
1667255161476937200,0.802937255859375,-0.21861323714256287,-0.3050506114959717,0.26771149039268494
1667255161479416600,0.80541650390625,-0.23144139349460602,-0.3288743197917938,0.2585485279560089
1667255161481895700,0.807895751953125,-0.23999349772930145,-0.3606393039226532,0.2530507445335388
1667255161484375000,0.810375,-0.2473238706588745,-0.3960694372653961,0.24633121490478516
1667255161486854400,0.8128544921875,-0.2528216540813446,-0.4382191300392151,0.23716825246810913
1667255161489333500,0.81533349609375,-0.2577085793018341,-0.4846448302268982,0.23044873774051666
1667255161491812900,0.817812744140625,-0.2589302957057953,-0.5359575152397156,0.22434009611606598
1667255161494292000,0.8202919921875,-0.2589302957057953,-0.5897135734558105,0.22006404399871826
1667255161496771300,0.822771240234375,-0.25465425848960876,-0.639804482460022,0.2188423126935959
1667255161499250700,0.825250732421875,-0.24365869164466858,-0.6843976378440857,0.22189663350582123
1667255161501729800,0.827729736328125,-0.2320522516965866,-0.7210494875907898,0.2292270064353943
1667255161504209200,0.830209228515625,-0.21922409534454346,-0.7497601509094238,0.23777911067008972
1667255161506688300,0.832688232421875,-0.20883940160274506,-0.7711403965950012,0.25060728192329407
1667255161509167600,0.835167724609375,-0.1966221034526825,-0.7870228886604309,0.263435423374176
1667255161511647000,0.83764697265625,-0.18501566350460052,-0.799240231513977,0.2793179154396057
1667255161514126000,0.8401259765625,-0.17707443237304688,-0.8077923059463501,0.29825472831726074
1667255161516605400,0.84260546875,-0.16852232813835144,-0.8126792311668396,0.3165806829929352
1667255161519084500,0.84508447265625,-0.1611919403076172,-0.8114575147628784,0.3367392122745514
1667255161521564000,0.84756396484375,-0.15325069427490234,-0.8047379851341248,0.35934120416641235
1667255161524043300,0.850043212890625,-0.14775292575359344,-0.7980184555053711,0.3813323378562927
1667255161526522400,0.8525224609375,-0.14408773183822632,-0.7912989854812622,0.4021017551422119
1667255161529001700,0.855001708984375,-0.14103341102600098,-0.7839685678482056,0.42531460523605347
1667255161531480800,0.857480712890625,-0.13736821711063385,-0.7741947770118713,0.4454731345176697
1667255161533960200,0.859960205078125,-0.13309216499328613,-0.7564796805381775,0.4644099473953247
1667255161536439600,0.862439453125,-0.12820523977279663,-0.73204505443573,0.4790706932544708
1667255161538918700,0.864918701171875,-0.12209659814834595,-0.7045561671257019,0.4864010810852051
1667255161541398000,0.86739794921875,-0.11598794907331467,-0.678288996219635,0.4912880063056946
1667255161543877400,0.86987744140625,-0.11110103130340576,-0.6514109373092651,0.4864010810852051
1667255161546356500,0.8723564453125,-0.10621411353349686,-0.6288089156150818,0.47784897685050964
1667255161548835800,0.8748359375,-0.1043815165758133,-0.6135373115539551,0.46257734298706055
1667255161551315000,0.87731494140625,-0.10560324788093567,-0.6055960655212402,0.44241881370544434
1667255161553794300,0.879794189453125,-0.10804671049118042,-0.6086503863334656,0.4143190383911133
1667255161556273700,0.882273681640625,-0.11232276260852814,-0.6190351247787476,0.38560840487480164
1667255161558752800,0.884752685546875,-0.11782054603099823,-0.6367501616477966,0.3526217043399811
1667255161561232100,0.887232177734375,-0.12637265026569366,-0.6599630117416382,0.31841325759887695
1667255161563711500,0.88971142578125,-0.1349247545003891,-0.6831759214401245,0.2805396616458893
1667255161566190600,0.892190673828125,-0.1453094631433487,-0.7033344507217407,0.24633121490478516
1667255161568670000,0.894669921875,-0.15386156737804413,-0.7216603755950928,0.2084576040506363
1667255161571149000,0.897149169921875,-0.16302454471588135,-0.7375428676605225,0.17424917221069336
1667255161573628400,0.89962841796875,-0.170965775847435,-0.751592755317688,0.14431680738925934
1667255161576107800,0.902107666015625,-0.17524182796478271,-0.7644209265708923,0.11621702462434769
1667255161578587000,0.9045869140625,-0.17218750715255737,-0.7778599262237549,0.08872810751199722
1667255161581066200,0.907066162109375,-0.16485713422298431,-0.7851903438568115,0.06123919412493706
1667255161583545600,0.909545654296875,-0.1550832986831665,-0.7870228886604309,0.039248060435056686
1667255161586024700,0.912024658203125,-0.14286600053310394,-0.7815251350402832,0.017867794260382652
1667255161588504000,0.914504150390625,-0.13187043368816376,-0.7735838890075684,-0.001679878099821508
1667255161590983200,0.916983154296875,-0.12392919510602951,-0.7619774341583252,-0.01695149764418602
1667255161593462500,0.919462646484375,-0.11598794907331467,-0.7460949420928955,-0.030390523374080658
1667255161595942000,0.92194189453125,-0.1141553521156311,-0.7241038084030151,-0.04199695214629173
1667255161598421000,0.9244208984375,-0.11232276260852814,-0.6984475255012512,-0.05299251899123192
1667255161600900400,0.926900390625,-0.11782054603099823,-0.6752346754074097,-0.06337722390890121
1667255161603379500,0.92937939453125,-0.1245400533080101,-0.6532435417175293,-0.0694858655333519
1667255161605858800,0.93185888671875,-0.13309216499328613,-0.630641520023346,-0.0743727833032608
1667255161608338200,0.934338134765625,-0.1404225379228592,-0.6123155951499939,-0.0792597085237503
1667255161610817300,0.9368173828125,-0.14775292575359344,-0.5958222150802612,-0.08231402933597565
1667255161613296600,0.939296630859375,-0.1495855152606964,-0.5781071782112122,-0.08536835014820099
1667255161615775700,0.941775634765625,-0.1446985900402069,-0.55672687292099,-0.0896444097161293
1667255161618255000,0.944255126953125,-0.13309216499328613,-0.547563910484314,-0.0896444097161293
1667255161620734500,0.946734375,-0.11843141168355942,-0.5390118360519409,-0.08781181275844574
1667255161623213600,0.949213623046875,-0.10193806141614914,-0.5212967395782471,-0.09086613357067108
1667255161625693000,0.95169287109375,-0.08177952468395233,-0.5096902847290039,-0.09819651395082474
1667255161628172300,0.95417236328125,-0.061620984226465225,-0.5115228891372681,-0.10430516302585602
1667255161630651400,0.9566513671875,-0.04146244749426842,-0.5151880979537964,-0.10980294644832611
1667255161633130800,0.959130859375,-0.028634287416934967,-0.5225184559822083,-0.11591159552335739
1667255161635609900,0.96160986328125,-0.013973532244563103,-0.5286270976066589,-0.12018764764070511
1667255161638089200,0.964089111328125,-0.0029779658652842045,-0.5347357392311096,-0.1262962967157364
1667255161640568600,0.966568603515625,0.006185005884617567,-0.537790060043335,-0.13362666964530945
1667255161643047700,0.969047607421875,0.013515383005142212,-0.5402335524559021,-0.13912445306777954
1667255161645527000,0.971527099609375,0.01779143698513508,-0.5384009480476379,-0.14706569910049438
1667255161648006100,0.974006103515625,0.018402300775051117,-0.5347357392311096,-0.15439607203006744
1667255161650485500,0.976485595703125,0.018402300775051117,-0.5286270976066589,-0.1623373180627823
1667255161652964900,0.97896484375,0.009850194677710533,-0.5164098143577576,-0.1727220118045807
1667255161655444000,0.98144384765625,-0.0011453714687377214,-0.4950295388698578,-0.18371757864952087
1667255161657923300,0.98392333984375,-0.016416991129517555,-0.4626537263393402,-0.19593487679958344
1667255161660402400,0.98640234375,-0.0371863916516304,-0.4168388545513153,-0.21059563755989075
1667255161662881800,0.9888818359375,-0.06345357745885849,-0.35941755771636963,-0.22769984602928162
1667255161665361200,0.991361083984375,-0.09155336022377014,-0.2897789776325226,-0.24602578580379486
1667255161667840300,0.99384033203125,-0.12759438157081604,-0.2115882933139801,-0.26618432998657227
1667255161670319600,0.996319580078125,-0.16485713422298431,-0.12851068377494812,-0.2893971800804138
1667255161672799000,0.998799072265625,-0.20578506588935852,-0.0423787422478199,-0.31322091817855835
1667255161675278000,1.001278076171875,-0.2479347437620163,0.04436405375599861,-0.3400989770889282
1667255161677757400,1.00375732421875,-0.2888626754283905,0.1274416595697403,-0.36880961060523987
1667255161680236800,1.00623681640625,-0.32612544298171997,0.203799769282341,-0.3975202441215515
1667255161682716000,1.0087158203125,-0.3603338599205017,0.27343833446502686,-0.42623090744018555
1667255161685195300,1.0111953125,-0.38843363523483276,0.32963791489601135,-0.4598284661769867
1667255161687674400,1.01367431640625,-0.41042476892471313,0.37545275688171387,-0.48914995789527893
1667255161690153700,1.01615380859375,-0.4269181191921234,0.409661203622818,-0.5190823674201965
1667255161692633000,1.018633056640625,-0.43974629044532776,0.42798712849617004,-0.5459604263305664
1667255161695112200,1.0211123046875,-0.4489092528820038,0.43837183713912964,-0.5703949928283691
1667255161697591600,1.023591552734375,-0.4574613571166992,0.4395935535430908,-0.5905535221099854
1667255161700071000,1.02607080078125,-0.4635699987411499,0.4304305911064148,-0.6076577305793762
1667255161702550000,1.028550048828125,-0.4678460657596588,0.4139372408390045,-0.6174315810203552
1667255161705029400,1.031029296875,-0.47212210297584534,0.39194610714912415,-0.6241511106491089
1667255161707508500,1.033508544921875,-0.4782307744026184,0.36506807804107666,-0.6296488642692566
1667255161709987800,1.03598779296875,-0.4831176698207855,0.33024877309799194,-0.6320923566818237
1667255161712467200,1.03846728515625,-0.4855611324310303,0.2911534309387207,-0.6290380358695984
1667255161714946300,1.0409462890625,-0.48617202043533325,0.24839289486408234,-0.6278162598609924
1667255161717425700,1.04342578125,-0.4837285578250885,0.20196716487407684,-0.6192641854286194
1667255161719904800,1.04590478515625,-0.4794524908065796,0.152487114071846,-0.6113229393959045
1667255161722384100,1.048384033203125,-0.47212210297584534,0.09873101860284805,-0.597273051738739
1667255161724863500,1.050863525390625,-0.4623482823371887,0.04130972921848297,-0.5801688432693481
1667255161727342600,1.053342529296875,-0.4525744318962097,-0.0191658828407526,-0.5618428587913513
1667255161729822000,1.055822021484375,-0.4434114694595337,-0.08086322247982025,-0.5410735011100769
1667255161732301000,1.058301025390625,-0.43547022342681885,-0.14317142963409424,-0.514195442199707
1667255161734780400,1.060780517578125,-0.4269181191921234,-0.20486877858638763,-0.48914995789527893
1667255161737259800,1.063259765625,-0.4177551567554474,-0.2629009187221527,-0.4604393243789673
1667255161739739000,1.06573876953125,-0.408592164516449,-0.31726789474487305,-0.43050694465637207
1667255161742218200,1.06821826171875,-0.3963748812675476,-0.36430448293685913,-0.3981311321258545
1667255161744697600,1.070697509765625,-0.3872119188308716,-0.4070650041103363,-0.3627009689807892
1667255161747176700,1.0731767578125,-0.37804892659187317,-0.44616037607192993,-0.3254382014274597
1667255161749656000,1.075656005859375,-0.3707185685634613,-0.4797579348087311,-0.2887863218784332
1667255161752135200,1.07813525390625,-0.36338818073272705,-0.5054142475128174,-0.25152358412742615
1667255161754614500,1.080614501953125,-0.3566686809062958,-0.5225184559822083,-0.2124282270669937
1667255161757094000,1.083093994140625,-0.35361436009407043,-0.5322923064231873,-0.1721111536026001
1667255161759573000,1.085572998046875,-0.3517817556858063,-0.5359575152397156,-0.13179408013820648
1667255161762052400,1.08805224609375,-0.3462839722633362,-0.5341249108314514,-0.08903354406356812
1667255161764531500,1.090531494140625,-0.3407861888408661,-0.5243510603904724,-0.0487164668738842
1667255161767010800,1.0930107421875,-0.335288405418396,-0.5109120011329651,-0.007177661173045635
1667255161769490200,1.095490234375,-0.325514554977417,-0.4895317554473877,0.03375028073787689
1667255161771969300,1.09796923828125,-0.3145190179347992,-0.4626537263393402,0.07223475724458694
1667255161774448600,1.10044873046875,-0.2986365258693695,-0.43088874220848083,0.11133010685443878
1667255161776927700,1.102927734375,-0.2827540338039398,-0.39423686265945435,0.14798198640346527
1667255161779407000,1.105406982421875,-0.261984646320343,-0.3557523787021637,0.1821904182434082
1667255161781886500,1.107886474609375,-0.2381609082221985,-0.3154352903366089,0.21578797698020935
1667255161784365600,1.110365478515625,-0.2118937224149704,-0.2738964855670929,0.24755294620990753
1667255161786845000,1.112844970703125,-0.18440480530261993,-0.23480114340782166,0.2750418782234192
1667255161789324300,1.11532421875,-0.15386156737804413,-0.1963166743516922,0.30253079533576965
1667255161791803400,1.117803466796875,-0.1251509189605713,-0.15966477990150452,0.32757624983787537
1667255161794282800,1.12028271484375,-0.09521854668855667,-0.12667807936668396,0.35017824172973633
1667255161796762000,1.12276220703125,-0.06711876392364502,-0.09430225193500519,0.37033677101135254
1667255161799241200,1.1252412109375,-0.04146244749426842,-0.06620246917009354,0.3868301212787628
1667255161801720600,1.127720458984375,-0.015806125476956367,-0.03932442143559456,0.4039343297481537
1667255161804199700,1.13019970703125,0.00923932995647192,-0.01672242395579815,0.4192059636116028
1667255161806679000,1.132678955078125,0.031230462715029716,0.002825249684974551,0.43081238865852356
1667255161809158400,1.135158447265625,0.05199986323714256,0.016875140368938446,0.4399753510951996
1667255161811637500,1.137637451171875,0.0709366723895073,0.02237292192876339,0.44730573892593384
1667255161814116900,1.140116943359375,0.08681915700435638,0.020540328696370125,0.44730573892593384
1667255161816596200,1.14259619140625,0.10086904466152191,0.010766491293907166,0.4430296719074249
1667255161819075300,1.145075439453125,0.11308634281158447,-0.00511599238961935,0.4332558512687683
1667255161821554700,1.1475546875,0.12408190965652466,-0.030161447823047638,0.4192059636116028
1667255161824033800,1.15003369140625,0.13141228258609772,-0.057039499282836914,0.40149086713790894
1667255161826513200,1.15251318359375,0.13935352861881256,-0.07964149862527847,0.38438665866851807
1667255161828992500,1.154992431640625,0.14362958073616028,-0.09735657274723053,0.366060733795166
1667255161831471600,1.1574716796875,0.1472947746515274,-0.10835213959217072,0.35017824172973633
1667255161833951000,1.159950927734375,0.14973822236061096,-0.11690424382686615,0.3361283540725708
1667255161836430000,1.16243017578125,0.14851650595664978,-0.11812597513198853,0.3251327872276306
1667255161838909400,1.164909423828125,0.14607304334640503,-0.11384992301464081,0.31719154119491577
1667255161841388800,1.167388916015625,0.1369100660085678,-0.10346522182226181,0.31230461597442627
1667255161843868000,1.169867919921875,0.12713623046875,-0.08941533416509628,0.3104720115661621
1667255161846347300,1.17234716796875,0.11797326058149338,-0.07170025259256363,0.3098611533641815
1667255161848826400,1.174826416015625,0.10514509677886963,-0.053374309092760086,0.31230461597442627
1667255161851305700,1.1773056640625,0.09292780607938766,-0.03504836559295654,0.31352636218070984
1667255161853785000,1.17978515625,0.08498656004667282,-0.017944153398275375,0.3116937577724457
1667255161856264200,1.18226416015625,0.07704532146453857,-0.00022907429956831038,0.30863943696022034
1667255161858743600,1.18474365234375,0.06849320977926254,0.014431680552661419,0.3061959743499756
1667255161861223000,1.187222900390625,0.061162836849689484,0.02542724646627903,0.29703301191329956
1667255161863702000,1.189701904296875,0.053832460194826126,0.0345902182161808,0.28787001967430115
1667255161866181400,1.192181396484375,0.04955640435218811,0.037033677101135254,0.27687445282936096
1667255161868660500,1.194660400390625,0.04528035223484039,0.03520108386874199,0.264046311378479
1667255161871139800,1.197139892578125,0.041004300117492676,0.024816380813717842,0.24999640882015228
1667255161873619200,1.199619140625,0.03733910992741585,0.0077121676877141,0.23594652116298676
1667255161876098300,1.202098388671875,0.031230462715029716,-0.015500693581998348,0.22250749170780182
1667255161878577700,1.20457763671875,0.028176138177514076,-0.04176788032054901,0.20967933535575867
1667255161881056800,1.207056884765625,0.02023489587008953,-0.07108938694000244,0.20173808932304382
1667255161883536100,1.2095361328125,0.015347977168858051,-0.10346522182226181,0.1931859850883484
1667255161886015500,1.212015380859375,0.009850194677710533,-0.13767364621162415,0.18952079117298126
1667255161888494600,1.21449462890625,0.006185005884617567,-0.17493639886379242,0.1876882016658783
1667255161890974000,1.216973876953125,0.0031306820455938578,-0.21036656200885773,0.18890993297100067
1667255161893453000,1.219453125,0.00007635809743078426,-0.24701844155788422,0.19624030590057373
1667255161895932400,1.221932373046875,-0.005421424750238657,-0.28183773159980774,0.20601414144039154
1667255161898411800,1.224411865234375,-0.009697478264570236,-0.3142135739326477,0.2182314395904541
1667255161900891000,1.226890869140625,-0.015806125476956367,-0.3441459536552429,0.2341139316558838
1667255161903370200,1.229370361328125,-0.02496909722685814,-0.3704131245613098,0.25121814012527466
1667255161905849600,1.231849609375,-0.03779725730419159,-0.39362600445747375,0.26710063219070435
1667255161908328700,1.23432861328125,-0.0524580143392086,-0.4113410711288452,0.2842048406600952
1667255161910808000,1.23680810546875,-0.06956222653388977,-0.4211149215698242,0.3013090491294861
1667255161913287400,1.239287353515625,-0.08727730810642242,-0.4217257797718048,0.3153589367866516
1667255161915766500,1.2417666015625,-0.10560324788093567,-0.41378453373908997,0.32940882444381714
1667255161918246000,1.244245849609375,-0.12209659814834595,-0.39912378787994385,0.3410152494907379
1667255161920725000,1.24672509765625,-0.13858994841575623,-0.37835437059402466,0.34834563732147217
1667255161923204400,1.249204345703125,-0.1508072465658188,-0.35330891609191895,0.35445427894592285
1667255161925683700,1.25168359375,-0.16180281341075897,-0.3239873945713043,0.3575085997581482
1667255161928162800,1.254162841796875,-0.17279838025569916,-0.2934441566467285,0.3556760251522064
1667255161930642200,1.25664208984375,-0.18012875318527222,-0.2629009187221527,0.3507890999317169
1667255161933121500,1.25912158203125,-0.18379394710063934,-0.23419028520584106,0.3422369956970215
1667255161935600600,1.2616005859375,-0.18868085741996765,-0.2018144577741623,0.3312414288520813
1667255161938080000,1.264080078125,-0.19295690953731537,-0.16394083201885223,0.31841325759887695
1667255161940559000,1.26655908203125,-0.1966221034526825,-0.12179116904735565,0.3006981909275055
1667255161943038500,1.26903857421875,-0.19906556606292725,-0.08025235682725906,0.2811505198478699
1667255161945517800,1.271517822265625,-0.2021198868751526,-0.04176788032054901,0.26099199056625366
1667255161947997000,1.273996826171875,-0.2063959389925003,-0.004505127668380737,0.23961171507835388
1667255161950476300,1.276476318359375,-0.20883940160274506,0.030925029888749123,0.22067490220069885
1667255161952955600,1.27895556640625,-0.21311545372009277,0.06452259421348572,0.20112723112106323
1667255161955434800,1.281434814453125,-0.21494804322719574,0.09873101860284805,0.18585561215877533
1667255161957914000,1.2839140625,-0.21861323714256287,0.13049599528312683,0.1718057245016098
1667255161960393200,1.286393310546875,-0.22044582664966583,0.1634826809167862,0.16081015765666962
1667255161962872600,1.28887255859375,-0.22288928925991058,0.19585852324962616,0.15470150113105774
1667255161965352000,1.29135205078125,-0.22533275187015533,0.22395829856395721,0.1516471803188324
1667255161967831000,1.2938310546875,-0.22960880398750305,0.25266894698143005,0.15409064292907715
1667255161970310400,1.296310302734375,-0.2320522516965866,0.275270938873291,0.1571449637413025
1667255161972789500,1.29878955078125,-0.2381609082221985,0.2960403561592102,0.16569706797599792
1667255161975268900,1.301268798828125,-0.2424369603395462,0.3107011020183563,0.17608177661895752
1667255161977748200,1.303748291015625,-0.24549128115177155,0.3180314898490906,0.1876882016658783
1667255161980227300,1.306227294921875,-0.2485456019639969,0.3161988854408264,0.20112723112106323
1667255161982706700,1.308706787109375,-0.25465425848960876,0.3082576394081116,0.21639885008335114
1667255161985185800,1.311185791015625,-0.25465425848960876,0.2917642891407013,0.23228132724761963
1667255161987665200,1.3136650390625,-0.25526511669158936,0.26855143904685974,0.24694208800792694
1667255161990144500,1.31614453125,-0.25587597489356995,0.23800818622112274,0.2652680277824402
1667255161992623600,1.31862353515625,-0.2534325122833252,0.20502148568630219,0.2805396616458893
1667255161995103000,1.32110302734375,-0.2485456019639969,0.16592614352703094,0.2952004075050354
1667255161997582300,1.323582275390625,-0.24488042294979095,0.12255474925041199,0.3068068325519562
1667255162000061400,1.3260615234375,-0.24060437083244324,0.07490729540586472,0.31780239939689636
1667255162002540800,1.328540771484375,-0.2381609082221985,0.027259841561317444,0.3269653618335724
1667255162005020000,1.33102001953125,-0.2381609082221985,-0.020387612283229828,0.3318522870540619
1667255162007499300,1.333499267578125,-0.23938263952732086,-0.06620246917009354,0.3355174660682678
1667255162009978600,1.335978515625,-0.2430478185415268,-0.11507165431976318,0.3355174660682678
1667255162012457700,1.338457763671875,-0.25098907947540283,-0.15905392169952393,0.3318522870540619
1667255162014937000,1.34093701171875,-0.26137375831604004,-0.1969275325536728,0.3251327872276306
1667255162017416200,1.343416259765625,-0.2742019295692444,-0.22869250178337097,0.314748078584671
1667255162019895600,1.3458955078125,-0.2882518172264099,-0.25007277727127075,0.3013090491294861
1667255162022375000,1.348375,-0.30230170488357544,-0.2635118067264557,0.28787001967430115
1667255162024854000,1.35085400390625,-0.31635159254074097,-0.26962044835090637,0.27137666940689087
1667255162027333400,1.35333349609375,-0.32734715938568115,-0.2690095901489258,0.2493855506181717
1667255162029812700,1.355812744140625,-0.33773186802864075,-0.26045745611190796,0.22617268562316895
1667255162032291800,1.358291748046875,-0.34322965145111084,-0.24396412074565887,0.20051635801792145
1667255162034771200,1.360771240234375,-0.3505600392818451,-0.21891866624355316,0.17424917221069336
1667255162037250300,1.363250244140625,-0.354225218296051,-0.18776455521583557,0.14431680738925934
1667255162039729700,1.365729736328125,-0.3548360764980316,-0.1547778695821762,0.11499529331922531
1667255162042209000,1.368208984375,-0.3517817556858063,-0.1193477064371109,0.0844520553946495
1667255162044688100,1.370688232421875,-0.34750568866729736,-0.08269581943750381,0.05329795181751251
1667255162047167500,1.37316748046875,-0.33712100982666016,-0.046654798090457916,0.023365577682852745
1667255162049646800,1.375646728515625,-0.3285689055919647,-0.012446369975805283,-0.005955931730568409
1667255162052126000,1.3781259765625,-0.31696245074272156,0.018096869811415672,-0.03222311660647392
1667255162054605300,1.380605224609375,-0.3047451674938202,0.0449749194085598,-0.05787943676114082
1667255162057084400,1.38308447265625,-0.29619306325912476,0.06818778067827225,-0.08170316368341446
1667255162059563800,1.385563720703125,-0.28703010082244873,0.08651372790336609,-0.10247256606817245
1667255162062043100,1.388043212890625,-0.2784779667854309,0.10056361556053162,-0.12324196845293045
1667255162064522200,1.390522216796875,-0.27175846695899963,0.11033745110034943,-0.13912445306777954
1667255162067001600,1.393001708984375,-0.2644280791282654,0.11766783148050308,-0.15317434072494507
1667255162069481000,1.39548095703125,-0.25526511669158936,0.12072215229272842,-0.16600249707698822
1667255162071960000,1.3979599609375,-0.2430478185415268,0.11827868968248367,-0.17821979522705078
1667255162074439400,1.400439453125,-0.2320522516965866,0.10911571979522705,-0.18432845175266266
1667255162076918500,1.40291845703125,-0.2173915058374405,0.09384410083293915,-0.18921536207199097
1667255162079398000,1.40539794921875,-0.2008981555700302,0.07735075056552887,-0.19104796648025513
1667255162081877200,1.407877197265625,-0.1813504844903946,0.059635672718286514,-0.1922696828842163
1667255162084356400,1.4103564453125,-0.15691588819026947,0.040088001638650894,-0.18921536207199097
1667255162086835700,1.412835693359375,-0.12759438157081604,0.022983787581324577,-0.1824958473443985
1667255162089314800,1.415314697265625,-0.09338594973087311,0.006490438245236874,-0.1715002804994583
1667255162091794200,1.417794189453125,-0.05917752534151077,-0.008170315995812416,-0.1562286615371704
1667255162094273500,1.4202734375,-0.021914774551987648,-0.024052800610661507,-0.13362666964530945
1667255162096752600,1.422752685546875,0.012904518283903599,-0.037491824477910995,-0.10980294644832611
1667255162099232000,1.42523193359375,0.0501672700047493,-0.049709122627973557,-0.08048143237829208
1667255162101711400,1.42771142578125,0.08376483619213104,-0.06192641705274582,-0.0487164668738842
1667255162104190500,1.4301904296875,0.11430807411670685,-0.072921983897686,-0.01206457894295454
1667255162106669800,1.432669921875,0.1430187225341797,-0.083306685090065,0.026419902220368385
1667255162109149000,1.43514892578125,0.16989676654338837,-0.09308052062988281,0.06734783947467804
1667255162111628300,1.437628173828125,0.19249875843524933,-0.104076087474823,0.11133010685443878
1667255162114107600,1.440107666015625,0.21510076522827148,-0.11507165431976318,0.15958842635154724
1667255162116586800,1.442586669921875,0.23648102581501007,-0.1291215419769287,0.20662501454353333
1667255162119066000,1.445066162109375,0.260915607213974,-0.14378230273723602,0.25671592354774475
1667255162121545500,1.44754541015625,0.2865719497203827,-0.16271910071372986,0.3092502951622009
1667255162124024600,1.450024658203125,0.3079521954059601,-0.18226677179336548,0.35995206236839294
1667255162126504000,1.45250390625,0.32383468747138977,-0.20486877858638763,0.41004297137260437
1667255162128983000,1.454983154296875,0.3287216126918793,-0.22930335998535156,0.4589121639728546
1667255162131462400,1.45746240234375,0.3274998664855957,-0.2586248815059662,0.5083922147750854
1667255162133941800,1.459941650390625,0.3220020830631256,-0.29100072383880615,0.5535961985588074
1667255162136420900,1.4624208984375,0.3128391206264496,-0.32276567816734314,0.5994110703468323
1667255162138900200,1.464900146484375,0.3018435537815094,-0.35330891609191895,0.6397281289100647
1667255162141379300,1.46737939453125,0.28901541233062744,-0.38385215401649475,0.6806560754776001
1667255162143858700,1.469858642578125,0.27435463666915894,-0.4156171381473541,0.716086208820343
1667255162146338000,1.472338134765625,0.2645808160305023,-0.4473820924758911,0.7509055137634277
1667255162148817200,1.474817138671875,0.25236350297927856,-0.48159050941467285,0.7814487814903259
1667255162151296500,1.477296630859375,0.2407570779323578,-0.5176315307617188,0.808937668800354
1667255162153775600,1.479775634765625,0.23220497369766235,-0.5506182312965393,0.8364266157150269
1667255162156255000,1.4822548828125,0.22304199635982513,-0.5811614990234375,0.8608611822128296
1667255162158734300,1.484734375,0.21326816082000732,-0.6080395579338074,0.8822414875030518
1667255162161213400,1.48721337890625,0.1986074149608612,-0.6300306916236877,0.901789128780365
1667255162163692800,1.48969287109375,0.17722713947296143,-0.6434696912765503,0.9170607328414917
1667255162166172200,1.492172119140625,0.147905632853508,-0.648967444896698,0.930499792098999
1667255162168651300,1.4946513671875,0.10942115634679794,-0.6459131240844727,0.9408844709396362
1667255162171130600,1.497130615234375,0.06482802331447601,-0.6349175572395325,0.9427170753479004
1667255162173609700,1.499609619140625,0.014737112447619438,-0.6141481995582581,0.9402735829353333
1667255162176089000,1.502089111328125,-0.0371863916516304,-0.5842158198356628,0.9329432249069214
1667255162178568400,1.504568359375,-0.09460768103599548,-0.546953022480011,0.9164499044418335
1667255162181047600,1.507047607421875,-0.14775292575359344,-0.5005273222923279,0.892626166343689
1667255162183527000,1.50952685546875,-0.19967642426490784,-0.44554948806762695,0.8614720702171326
1667255162186006300,1.51200634765625,-0.2473238706588745,-0.38263043761253357,0.8248201608657837
1667255162188485400,1.5144853515625,-0.28641921281814575,-0.31604617834091187,0.7802270650863647
1667255162190964700,1.51696484375,-0.3187950551509857,-0.247629314661026,0.7325795888900757
1667255162193443800,1.51944384765625,-0.344451367855072,-0.17676898837089539,0.6794343590736389
1667255162195923200,1.521923095703125,-0.3664425015449524,-0.10651954263448715,0.6226239204406738
1667255162198402600,1.524402587890625,-0.385990172624588,-0.03810269013047218,0.5664243698120117
1667255162200881700,1.526881591796875,-0.4012618064880371,0.023594651371240616,0.5071704983711243
1667255162203361000,1.529361083984375,-0.4165334105491638,0.07857248187065125,0.45219266414642334
1667255162205840400,1.53184033203125,-0.4263072609901428,0.1268308013677597,0.3972148299217224
1667255162208319500,1.534319580078125,-0.4385245442390442,0.17081306874752045,0.34406960010528564
1667255162210798800,1.536798828125,-0.4489092528820038,0.2092975378036499,0.29397866129875183
1667255162213278000,1.53927783203125,-0.4580722153186798,0.24411684274673462,0.24694208800792694
1667255162215757300,1.54175732421875,-0.4678460657596588,0.27343833446502686,0.20418155193328857
1667255162218236700,1.544236572265625,-0.47639816999435425,0.29420775175094604,0.16325360536575317
1667255162220715800,1.5467158203125,-0.4843394160270691,0.3082576394081116,0.12782345712184906
1667255162223195100,1.549195068359375,-0.4904480576515198,0.316809743642807,0.09422589093446732
1667255162225674500,1.551674560546875,-0.49105891585350037,0.3216966688632965,0.06795870512723923
1667255162228153600,1.554153564453125,-0.4886154532432556,0.3210858106613159,0.04718930274248123
1667255162230633000,1.556633056640625,-0.48128509521484375,0.316809743642807,0.02764163166284561
1667255162233112000,1.559112060546875,-0.469678670167923,0.3107011020183563,0.017867794260382652
1667255162235591400,1.56159130859375,-0.45562875270843506,0.3015381395816803,0.012980876490473747
1667255162238070800,1.56407080078125,-0.4385245442390442,0.2905425727367401,0.008704823441803455
1667255162240550000,1.5665498046875,-0.4232529401779175,0.2758817970752716,0.009315688163042068
1667255162243029200,1.569029296875,-0.40553784370422363,0.25938844680786133,0.01359174121171236
1667255162245508600,1.571508544921875,-0.38843363523483276,0.24106250703334808,0.01908952370285988
1667255162247987700,1.57398779296875,-0.37377288937568665,0.22334744036197662,0.026419902220368385
1667255162250467000,1.576467041015625,-0.3603338599205017,0.20135630667209625,0.03497200831770897
1667255162252946200,1.5789462890625,-0.3456731140613556,0.17569997906684875,0.04413498193025589
1667255162255425500,1.581425537109375,-0.33345580101013184,0.14943279325962067,0.05451968312263489
1667255162257905000,1.58390478515625,-0.3200167715549469,0.12438733875751495,0.06368265300989151
1667255162260384000,1.586384033203125,-0.3084103465080261,0.10178534686565399,0.07528908550739288
1667255162262863400,1.58886328125,-0.29619306325912476,0.07979421317577362,0.0850629210472107
1667255162265342700,1.5913427734375,-0.284586638212204,0.059024810791015625,0.0948367565870285
1667255162267821800,1.59382177734375,-0.274812787771225,0.040088001638650894,0.10644318908452988
1667255162270301200,1.59630126953125,-0.26564982533454895,0.02542724646627903,0.11621702462434769
1667255162272780300,1.5987802734375,-0.25526511669158936,0.01626427471637726,0.12476912885904312
1667255162275259600,1.601259765625,-0.24549128115177155,0.015042545273900032,0.13515383005142212
1667255162277739000,1.603739013671875,-0.23327398300170898,0.021151192486286163,0.14798198640346527
1667255162280218000,1.606218017578125,-0.2216675579547882,0.0345902182161808,0.15958842635154724
1667255162282697500,1.608697509765625,-0.21006113290786743,0.05352702736854553,0.17058399319648743
1667255162285176600,1.611176513671875,-0.20028728246688843,0.07979421317577362,0.17913609743118286
1667255162287656000,1.613656005859375,-0.19356778264045715,0.11217004805803299,0.18829907476902008
1667255162290135300,1.61613525390625,-0.18806999921798706,0.14882193505764008,0.19624030590057373
1667255162292614400,1.618614501953125,-0.18806999921798706,0.18791727721691132,0.19868376851081848
1667255162295093800,1.62109375,-0.18684826791286469,0.2294560819864273,0.1974620372056961
1667255162297573000,1.623572998046875,-0.1862373948097229,0.27343833446502686,0.19013166427612305
1667255162300052200,1.62605224609375,-0.18501566350460052,0.31864234805107117,0.1815795600414276
1667255162302531600,1.628531494140625,-0.1813504844903946,0.36079201102256775,0.16752967238426208
1667255162305010700,1.6310107421875,-0.16974404454231262,0.4004982113838196,0.1510363221168518
1667255162307490000,1.633489990234375,-0.15691588819026947,0.43715012073516846,0.1314886510372162
1667255162309969400,1.635969482421875,-0.13797907531261444,0.4725802540779114,0.11255183815956116
1667255162312448500,1.638448486328125,-0.1196531355381012,0.5049561262130737,0.09422589093446732
1667255162314927900,1.640927978515625,-0.09766200929880142,0.533666729927063,0.07589995115995407
1667255162317407000,1.643406982421875,-0.07383827865123749,0.5611556768417358,0.06246092543005943
1667255162319886300,1.64588623046875,-0.05062541738152504,0.5849793553352356,0.049632761627435684
1667255162322365700,1.64836572265625,-0.028634287416934967,0.6057487726211548,0.039858926087617874
1667255162324844800,1.6508447265625,-0.004810560029000044,0.6222421526908875,0.03436114266514778
1667255162327324200,1.65332421875,0.015958841890096664,0.6350703239440918,0.030085090547800064
1667255162329803300,1.65580322265625,0.041004300117492676,0.6393463611602783,0.028863361105322838
1667255162332282600,1.65828271484375,0.06727148592472076,0.63568115234375,0.030085090547800064
1667255162334762000,1.660761962890625,0.09476039558649063,0.6216312646865845,0.03191768378019333
1667255162337241000,1.663240966796875,0.12713623046875,0.5965858101844788,0.04108065739274025
1667255162339720400,1.665720458984375,0.16134466230869293,0.5611556768417358,0.049021899700164795
1667255162342199800,1.66819970703125,0.19982914626598358,0.5171734094619751,0.06368265300989151
1667255162344679000,1.670678955078125,0.23709189891815186,0.4615846872329712,0.08628465235233307
1667255162347158300,1.673158203125,0.27435463666915894,0.4004982113838196,0.10888664424419403
1667255162349637600,1.6756376953125,0.31039565801620483,0.3381900191307068,0.13759729266166687
1667255162352116700,1.67811669921875,0.3427715003490448,0.27404922246932983,0.17302745580673218
1667255162354596000,1.68059619140625,0.3720930218696594,0.2086866796016693,0.212733656167984
1667255162357075200,1.6830751953125,0.3977493345737457,0.14515674114227295,0.2548833191394806
1667255162359554600,1.685554443359375,0.41851872205734253,0.08345939964056015,0.3013090491294861
1667255162362034000,1.688033935546875,0.43745553493499756,0.02237292192876339,0.34834563732147217
1667255162364513000,1.690512939453125,0.4508945643901825,-0.03565923124551773,0.39477136731147766
1667255162366992400,1.692992431640625,0.46250098943710327,-0.093691386282444,0.4405862092971802
1667255162369471700,1.6954716796875,0.4704422354698181,-0.14928008615970612,0.4845684766769409
1667255162371950800,1.697950927734375,0.46922051906585693,-0.19998185336589813,0.521831214427948
1667255162374430200,1.70043017578125,0.464944452047348,-0.24640758335590363,0.5554288029670715
1667255162376909300,1.702909423828125,0.455781489610672,-0.28611379861831665,0.5823068618774414
1667255162379388700,1.705388671875,0.44295331835746765,-0.3197113573551178,0.60490882396698
1667255162381868000,1.707867919921875,0.4289034307003021,-0.34658941626548767,0.6214022040367126
1667255162384347100,1.71034716796875,0.41179922223091125,-0.3673588037490845,0.633008599281311
1667255162386826500,1.712826416015625,0.39713847637176514,-0.3801869750022888,0.6409498453140259
1667255162389305900,1.715305908203125,0.3843103051185608,-0.3875173330307007,0.643393337726593
1667255162391785000,1.717784912109375,0.3745364546775818,-0.3869064748287201,0.643393337726593
1667255162394264300,1.720264404296875,0.36537349224090576,-0.3807978332042694,0.6415607333183289
1667255162396743400,1.722743408203125,0.3543779253959656,-0.3704131245613098,0.6360629796981812
1667255162399222800,1.725222900390625,0.34032803773880005,-0.35758498311042786,0.6262891292572021
1667255162401702100,1.7277021484375,0.3262781500816345,-0.34170249104499817,0.6159043908119202
1667255162404181200,1.73018115234375,0.30978479981422424,-0.3252091407775879,0.6006327867507935
1667255162406660600,1.73266064453125,0.2914588451385498,-0.30627232789993286,0.5841394662857056
1667255162409140000,1.735139892578125,0.270689457654953,-0.2879463732242584,0.5645917654037476
1667255162411619000,1.737619140625,0.24869832396507263,-0.2671769857406616,0.5432115197181702
1667255162414098400,1.740098388671875,0.2248746007680893,-0.24640758335590363,0.522442102432251
1667255162416577500,1.74257763671875,0.1986074149608612,-0.22502730786800385,0.5010618567466736
1667255162419057000,1.745056884765625,0.17050762474536896,-0.2012035846710205,0.47845983505249023
1667255162421536300,1.747536376953125,0.13996438682079315,-0.17371466755867004,0.4558578431606293
1667255162424015400,1.750015380859375,0.106366828083992,-0.14683662354946136,0.43203410506248474
1667255162426494700,1.75249462890625,0.07215840369462967,-0.12056943774223328,0.4088212549686432
1667255162428974000,1.75497412109375,0.03672824427485466,-0.09246965497732162,0.38560840487480164
1667255162431453200,1.757453125,0.0025198173243552446,-0.06498073786497116,0.3605629503726959
1667255162433932500,1.7599326171875,-0.029856016859412193,-0.037491824477910995,0.33857181668281555
1667255162436411600,1.76241162109375,-0.06101011857390404,-0.01000291109085083,0.31719154119491577
1667255162438891000,1.76489111328125,-0.08544471114873886,0.017486004158854485,0.29764387011528015
1667255162441370400,1.767370361328125,-0.11049016565084457,0.04741837829351425,0.2805396616458893
1667255162443849500,1.769849365234375,-0.129426971077919,0.07979421317577362,0.263435423374176
1667255162446328800,1.772328857421875,-0.14897464215755463,0.11217004805803299,0.2493855506181717
1667255162448808000,1.774807861328125,-0.16485713422298431,0.14393500983715057,0.23533566296100616
1667255162451287300,1.777287353515625,-0.18012875318527222,0.17142392694950104,0.22189663350582123
1667255162453766700,1.7797666015625,-0.19295690953731537,0.19036073982715607,0.20723587274551392
1667255162456245800,1.782245849609375,-0.2021198868751526,0.20135630667209625,0.18829907476902008
1667255162458725000,1.78472509765625,-0.20822852849960327,0.20685409009456635,0.16936226189136505
1667255162461204500,1.78720458984375,-0.21006113290786743,0.20807582139968872,0.14920371770858765
1667255162463683600,1.78968359375,-0.21006113290786743,0.20563235878944397,0.1259908676147461
1667255162466163000,1.792162841796875,-0.2070067971944809,0.1983019858598709,0.10583232343196869
1667255162468642000,1.79464208984375,-0.19967642426490784,0.18486295640468597,0.08384118974208832
1667255162471121400,1.797121337890625,-0.19295690953731537,0.1677587330341339,0.06246092543005943
1667255162473600800,1.799600830078125,-0.18257221579551697,0.15004366636276245,0.045967575162649155
1667255162476079900,1.802079833984375,-0.17463096976280212,0.13599377870559692,0.03558287397027016
1667255162478559200,1.804559326171875,-0.1654679924249649,0.12316560745239258,0.026419902220368385
1667255162481038300,1.807038330078125,-0.1605810821056366,0.11461350321769714,0.02153298258781433
1667255162483517700,1.809517578125,-0.15813761949539185,0.10850485414266586,0.02153298258781433
1667255162485997000,1.8119970703125,-0.15935935080051422,0.10483966767787933,0.02214384824037552
1667255162488476200,1.81447607421875,-0.16363540291786194,0.10300707072019577,0.025809036567807198
1667255162490955500,1.81695556640625,-0.17218750715255737,0.10422880202531815,0.027030766010284424
1667255162493435000,1.819434814453125,-0.1856265366077423,0.10545053333044052,0.027030766010284424
1667255162495914000,1.8219140625,-0.2008981555700302,0.10911571979522705,0.02519817277789116
1667255162498393300,1.824393310546875,-0.21494804322719574,0.11583523452281952,0.01847865991294384
1667255162500872400,1.82687255859375,-0.22960880398750305,0.12316560745239258,0.009315688163042068
1667255162503351800,1.829351806640625,-0.24121522903442383,0.1274416595697403,-0.0010690133785828948
1667255162505831200,1.8318310546875,-0.2540434002876282,0.13110685348510742,-0.01206457894295454
1667255162508310300,1.834310302734375,-0.2674824297428131,0.1329394429922104,-0.022449281066656113
1667255162510789600,1.83678955078125,-0.2833648920059204,0.1329394429922104,-0.031001387163996696
1667255162513269000,1.83926904296875,-0.2998582422733307,0.1323285847902298,-0.04016435891389847
1667255162515748000,1.841748046875,-0.32123851776123047,0.13049599528312683,-0.04810560122132301
1667255162518227500,1.8442275390625,-0.344451367855072,0.12927426397800446,-0.057268574833869934
1667255162520706600,1.84670654296875,-0.3664425015449524,0.13110685348510742,-0.06643154472112656
1667255162523186000,1.84918603515625,-0.3927097022533417,0.13416117429733276,-0.07742711156606674
1667255162525665300,1.851665283203125,-0.4159225523471832,0.13843722641468048,-0.09086613357067108
1667255162528144400,1.854144287109375,-0.437302827835083,0.14332415163516998,-0.10674861818552017
1667255162530623700,1.856623779296875,-0.45623964071273804,0.14882193505764008,-0.12140937149524689
1667255162533103000,1.85910302734375,-0.47090038657188416,0.15676318109035492,-0.13851359486579895
1667255162535582200,1.861582275390625,-0.4831176698207855,0.1683696061372757,-0.1562286615371704
1667255162538061600,1.8640615234375,-0.4941132366657257,0.183030366897583,-0.1727220118045807
1667255162540540700,1.866540771484375,-0.50144362449646,0.20074543356895447,-0.1879936307668686
1667255162543020000,1.86902001953125,-0.511217474937439,0.21540619432926178,-0.2032652497291565
1667255162545499400,1.87149951171875,-0.5216021537780762,0.23189954459667206,-0.2185368686914444
1667255162547978500,1.873978515625,-0.5344303250312805,0.24839289486408234,-0.23136503994464874
1667255162550457900,1.876457763671875,-0.548480212688446,0.2667188346385956,-0.24297146499156952
1667255162552937200,1.878937255859375,-0.5655844211578369,0.28260132670402527,-0.2551887631416321
1667255162555416300,1.881416259765625,-0.5832995176315308,0.2972620725631714,-0.2655734717845917
1667255162557895700,1.883895751953125,-0.5979602336883545,0.30947935581207275,-0.2735147178173065
1667255162560374800,1.886374755859375,-0.6144536137580872,0.31925320625305176,-0.281455934047699
1667255162562854100,1.888854248046875,-0.6272817850112915,0.3271944522857666,-0.2893971800804138
1667255162565333500,1.89133349609375,-0.6382773518562317,0.33452481031417847,-0.29245150089263916
1667255162567812600,1.8938125,-0.6449968218803406,0.3430769443511963,-0.29856017231941223
1667255162570292000,1.8962919921875,-0.6474403142929077,0.349185585975647,-0.3016144931316376
1667255162572771300,1.898771240234375,-0.641331672668457,0.3571268320083618,-0.301003634929657
1667255162575250400,1.90125048828125,-0.6340012550354004,0.36140286922454834,-0.3040579557418823
1667255162577729800,1.903729736328125,-0.6211731433868408,0.3644571900367737,-0.30344706773757935
1667255162580209000,1.906208984375,-0.6010146141052246,0.36628979444503784,-0.301003634929657
1667255162582688300,1.908688232421875,-0.5802451968193054,0.36628979444503784,-0.29856017231941223
1667255162585167600,1.911167724609375,-0.5533671379089355,0.3626246154308319,-0.29245150089263916
1667255162587646700,1.913646728515625,-0.5252673625946045,0.3571268320083618,-0.2900080680847168
1667255162590126000,1.9161259765625,-0.4947241246700287,0.349185585975647,-0.2857320010662079
1667255162592605400,1.91860546875,-0.4629591405391693,0.3375791609287262,-0.2796233594417572
1667255162595084500,1.92108447265625,-0.427528977394104,0.3216966688632965,-0.27290382981300354
1667255162597564000,1.92356396484375,-0.38965538144111633,0.3015381395816803,-0.2637408673763275
1667255162600043000,1.92604296875,-0.34872743487358093,0.2771035432815552,-0.2503018379211426
1667255162602522400,1.9285224609375,-0.3090212345123291,0.24778202176094055,-0.23441936075687408
1667255162605001700,1.931001708984375,-0.2693150043487549,0.21479532122612,-0.2136499583721161
1667255162607480800,1.933480712890625,-0.22899793088436127,0.17569997906684875,-0.18860450387001038
1667255162609960200,1.935960205078125,-0.19234605133533478,0.13538290560245514,-0.15989385545253754
1667255162612439600,1.938439453125,-0.15386156737804413,0.09201150387525558,-0.12812888622283936
1667255162614918700,1.940918701171875,-0.11782054603099823,0.0449749194085598,-0.09086613357067108
1667255162617398000,1.94339794921875,-0.08239039033651352,-0.003283398225903511,-0.051159925758838654
1667255162619877000,1.945877197265625,-0.04818195849657059,-0.053374309092760086,-0.006566796451807022
1667255162622356500,1.9483564453125,-0.012751801870763302,-0.10713040828704834,0.04230238497257233
1667255162624835800,1.9508359375,0.02023489587008953,-0.16271910071372986,0.09361502528190613
1667255162627315000,1.95331494140625,0.05322159454226494,-0.2219729870557785,0.14981459081172943
1667255162629794300,1.955794189453125,0.08559742569923401,-0.28183773159980774,0.20662501454353333
1667255162632273700,1.958273681640625,0.11430807411670685,-0.3392590284347534,0.26771149039268494
1667255162634752800,1.960752685546875,0.14057525992393494,-0.3930151164531708,0.3318522870540619
1667255162637232000,1.963232177734375,0.16378812491893768,-0.4431060254573822,0.39477136731147766
1667255162639711200,1.965711181640625,0.18272492289543152,-0.48708829283714294,0.458301305770874
1667255162642190600,1.968190673828125,0.19249875843524933,-0.5274053812026978,0.5187768936157227
1667255162644670000,1.970669921875,0.20105087757110596,-0.5634464025497437,0.5755873322486877
1667255162647149000,1.973149169921875,0.21021384000778198,-0.5921570658683777,0.6275108456611633
1667255162649628400,1.97562841796875,0.2144898921251297,-0.6159807443618774,0.6745474338531494
1667255162652107800,1.978107666015625,0.21693335473537445,-0.6336958408355713,0.7130318880081177
1667255162654587000,1.9805869140625,0.21876594424247742,-0.648967444896698,0.7466294765472412
1667255162657066200,1.983066162109375,0.21693335473537445,-0.6605738997459412,0.7735075354576111
1667255162659545300,1.98554541015625,0.21021384000778198,-0.6721803545951843,0.7942769527435303
1667255162662024700,1.988024658203125,0.20593778789043427,-0.6795107126235962,0.8083268404006958
1667255162664504000,1.990504150390625,0.19738568365573883,-0.6850084662437439,0.81810063123703
1667255162666983200,1.992983154296875,0.18639011681079865,-0.6837867498397827,0.8248201608657837
1667255162669462500,1.995462646484375,0.17417281866073608,-0.6758455038070679,0.8260418772697449
1667255162671942000,1.99794189453125,0.15890119969844818,-0.6599630117416382,0.8242093324661255
1667255162674421000,2.0004208984375,0.1417969912290573,-0.6379718780517578,0.8174898028373718
1667255162676900400,2.002900390625,0.11980585753917694,-0.6141481995582581,0.809548556804657
1667255162679379500,2.00537939453125,0.09842558950185776,-0.584826648235321,0.7973312735557556
1667255162681858800,2.00785888671875,0.07399099320173264,-0.5542834401130676,0.7832813858985901
1667255162684338200,2.010338134765625,0.0501672700047493,-0.5194641351699829,0.7686206102371216
1667255162686817300,2.0128173828125,0.025121813639998436,-0.48097965121269226,0.7478511929512024
1667255162689296600,2.015296630859375,0.00007635809743078426,-0.4388299882411957,0.7270817756652832
1667255162691776000,2.01777587890625,-0.023747367784380913,-0.3924042582511902,0.7002037763595581
1667255162694255000,2.020255126953125,-0.045738499611616135,-0.3404807448387146,0.6684387922286987
1667255162696734500,2.022734375,-0.06772962957620621,-0.2830594778060913,0.6354520916938782
1667255162699213600,2.025213623046875,-0.08788817375898361,-0.22075125575065613,0.5963567495346069
1667255162701693000,2.02769287109375,-0.10560324788093567,-0.16210824251174927,0.5523744821548462
1667255162704172300,2.03017236328125,-0.12148573249578476,-0.10529781877994537,0.503505289554596
1667255162706651400,2.0326513671875,-0.13125957548618317,-0.049709122627973557,0.44669488072395325
1667255162709130800,2.035130859375,-0.13553562760353088,0.002825249684974551,0.3868301212787628
1667255162711610000,2.037610107421875,-0.13370302319526672,0.05169443041086197,0.3257436454296112
1667255162714089200,2.040089111328125,-0.12820523977279663,0.09750928729772568,0.2603811025619507
1667255162716568600,2.042568603515625,-0.12026400119066238,0.1372154951095581,0.19501857459545135
1667255162719047700,2.045047607421875,-0.11232276260852814,0.17020219564437866,0.12965604662895203
1667255162721527000,2.047527099609375,-0.10621411353349686,0.20013457536697388,0.0642935186624527
1667255162724006400,2.05000634765625,-0.09949459880590439,0.2251800298690796,-0.00045814859913662076
1667255162726485500,2.052485595703125,-0.0939968153834343,0.2447277009487152,-0.05849030241370201
1667255162728964900,2.05496484375,-0.0884990319609642,0.2606101930141449,-0.11468986421823502
1667255162731444200,2.0574443359375,-0.0836121141910553,0.275270938873291,-0.16355904936790466
1667255162733923300,2.05992333984375,-0.0781143307685852,0.28870996832847595,-0.20693044364452362
1667255162736402700,2.062402587890625,-0.07200568914413452,0.30031639337539673,-0.24541492760181427
1667255162738881800,2.0648818359375,-0.06711876392364502,0.31009024381637573,-0.2753472924232483
1667255162741361200,2.067361083984375,-0.06223184987902641,0.3131445646286011,-0.29856017231941223
1667255162743840500,2.069840576171875,-0.05978839099407196,0.31009024381637573,-0.3174969553947449
1667255162746319600,2.072319580078125,-0.05917752534151077,0.30398157238960266,-0.32849252223968506
1667255162748799000,2.074799072265625,-0.05734493210911751,0.2874882221221924,-0.33460119366645813
1667255162751278000,2.077278076171875,-0.05673406645655632,0.26732969284057617,-0.3364337682723999
1667255162753757400,2.07975732421875,-0.05734493210911751,0.2447277009487152,-0.3321577310562134
1667255162756236800,2.08223681640625,-0.05978839099407196,0.22090397775173187,-0.32421648502349854
1667255162758716000,2.0847158203125,-0.06406444311141968,0.19524765014648438,-0.3119991719722748
1667255162761195300,2.0871953125,-0.06895136088132858,0.1677587330341339,-0.29672756791114807
1667255162763674600,2.089674560546875,-0.07506000995635986,0.13965895771980286,-0.27779075503349304
1667255162766153700,2.09215380859375,-0.08177952468395233,0.11217004805803299,-0.25641047954559326
1667255162768633000,2.094633056640625,-0.0884990319609642,0.08223766833543777,-0.23258677124977112
1667255162771112200,2.0971123046875,-0.09644027799367905,0.055970486253499985,-0.20693044364452362
1667255162773591600,2.099591552734375,-0.1037706509232521,0.02848157100379467,-0.17944152653217316
1667255162776071000,2.10207080078125,-0.10804671049118042,0.0009926552884280682,-0.15012001991271973
1667255162778550000,2.104550048828125,-0.11476621776819229,-0.022220205515623093,-0.11713331937789917
1667255162781029400,2.107029296875,-0.12087486684322357,-0.044211339205503464,-0.08536835014820099
1667255162783508700,2.1095087890625,-0.12392919510602951,-0.06192641705274582,-0.05238165333867073
1667255162785987800,2.11198779296875,-0.12881611287593842,-0.07719803601503372,-0.018173227086663246
1667255162788467200,2.11446728515625,-0.13248129189014435,-0.08941533416509628,0.017256930470466614
1667255162790946300,2.1169462890625,-0.1343138962984085,-0.09918916970491409,0.04657844081521034
1667255162793425700,2.11942578125,-0.13858994841575623,-0.10651954263448715,0.07528908550739288
1667255162795905000,2.121905029296875,-0.1446985900402069,-0.11323905736207962,0.10338886082172394
1667255162798384000,2.124384033203125,-0.14775292575359344,-0.1193477064371109,0.12476912885904312
1667255162800863500,2.126863525390625,-0.15263983607292175,-0.12301289290189743,0.14492766559123993
1667255162803342800,2.1293427734375,-0.1599702090024948,-0.12545634806156158,0.1571449637413025
1667255162805822000,2.131822021484375,-0.16302454471588135,-0.12728895246982574,0.16569706797599792
1667255162808301300,2.13430126953125,-0.16424626111984253,-0.1297324001789093,0.16997312009334564
1667255162810780400,2.136780517578125,-0.1654679924249649,-0.13339759409427643,0.1663079410791397
1667255162813259800,2.139259765625,-0.16180281341075897,-0.1340084671974182,0.15958842635154724
1667255162815739100,2.1417392578125,-0.15630502998828888,-0.13217586278915405,0.14737112820148468
1667255162818218200,2.14421826171875,-0.14714205265045166,-0.12667807936668396,0.1302669197320938
1667255162820697600,2.146697509765625,-0.13187043368816376,-0.11568251997232437,0.11194097250699997
1667255162823177000,2.149177001953125,-0.11598794907331467,-0.10468695312738419,0.09056070446968079
1667255162825656000,2.151656005859375,-0.1037706509232521,-0.093691386282444,0.06734783947467804
1667255162828135400,2.154135498046875,-0.09338594973087311,-0.08147408813238144,0.04413498193025589
1667255162830614500,2.156614501953125,-0.08605557680130005,-0.06864593178033829,0.019700389355421066
1667255162833094000,2.159093994140625,-0.08239039033651352,-0.05215258151292801,-0.003512472379952669
1667255162835573200,2.1615732421875,-0.08055779337882996,-0.03504836559295654,-0.02611446939408779
1667255162838052400,2.16405224609375,-0.08116865903139114,-0.01611155830323696,-0.04932733252644539
1667255162840531700,2.16653173828125,-0.08177952468395233,0.0016035200096666813,-0.07192932814359665
1667255162843011000,2.169010986328125,-0.08300124853849411,0.01626427471637726,-0.09697478264570236
1667255162845490200,2.171490234375,-0.07933606207370758,0.02542724646627903,-0.1153007298707962
1667255162847969500,2.173969482421875,-0.07628174126148224,0.02909243479371071,-0.13545925915241241
1667255162850448600,2.17644873046875,-0.07078395783901215,0.026038112118840218,-0.15378521382808685
1667255162852928000,2.178927978515625,-0.06711876392364502,0.019929463043808937,-0.16783510148525238
1667255162855407400,2.181407470703125,-0.06406444311141968,0.008933897130191326,-0.18127411603927612
1667255162857886500,2.183886474609375,-0.06467530876398087,-0.006948587018996477,-0.19104796648025513
1667255162860365800,2.18636572265625,-0.06467530876398087,-0.023441936820745468,-0.19837833940982819
1667255162862845200,2.18884521484375,-0.06711876392364502,-0.036880962550640106,-0.20204351842403412
1667255162865324300,2.19132421875,-0.07017309218645096,-0.043600473552942276,-0.20631958544254303
1667255162867803600,2.1938037109375,-0.07506000995635986,-0.041157014667987823,-0.20448698103427887
1667255162870282800,2.19628271484375,-0.07872519642114639,-0.03138317912817001,-0.20204351842403412
1667255162872762000,2.19876220703125,-0.08300124853849411,-0.017333287745714188,-0.19898919761180878
1667255162875241500,2.201241455078125,-0.08727730810642242,0.0009926552884280682,-0.1922696828842163
1667255162877720600,2.203720458984375,-0.09033162891864777,0.013820815831422806,-0.18555018305778503
1667255162880200000,2.206199951171875,-0.0939968153834343,0.023594651371240616,-0.1769980639219284
1667255162882679300,2.20867919921875,-0.09827287495136261,0.02909243479371071,-0.16783510148525238
1667255162885158400,2.211158447265625,-0.10315979272127151,0.02909243479371071,-0.15745039284229279
1667255162887637800,2.2136376953125,-0.1092684343457222,0.024816380813717842,-0.14828743040561676
1667255162890116900,2.216116943359375,-0.11476621776819229,0.018096869811415672,-0.13851359486579895
1667255162892596200,2.21859619140625,-0.1196531355381012,0.007101302966475487,-0.1305723488330841
1667255162895075600,2.22107568359375,-0.12637265026569366,-0.0057268571108579636,-0.12446369975805283
1667255162897554700,2.2235546875,-0.129426971077919,-0.017944153398275375,-0.12018764764070511
1667255162900034000,2.226033935546875,-0.13309216499328613,-0.030161447823047638,-0.12140937149524689
1667255162902513400,2.228513427734375,-0.129426971077919,-0.043600473552942276,-0.12385283410549164
1667255162904992500,2.230992431640625,-0.12392919510602951,-0.05520690605044365,-0.12873975932598114
1667255162907472000,2.233471923828125,-0.11171189695596695,-0.06559160351753235,-0.13423752784729004
1667255162909951000,2.235950927734375,-0.09949459880590439,-0.07597630470991135,-0.14278964698314667
1667255162912430300,2.238430419921875,-0.08055779337882996,-0.08269581943750381,-0.14889828860759735
1667255162914909700,2.24090966796875,-0.061620984226465225,-0.08391755074262619,-0.1519526094198227
1667255162917388800,2.243388916015625,-0.04024071618914604,-0.08086322247982025,-0.15500694513320923
1667255162919868200,2.2458681640625,-0.020082179456949234,-0.06986765563488007,-0.15500694513320923
1667255162922347500,2.248347412109375,0.0025198173243552446,-0.05581776797771454,-0.15439607203006744
1667255162924826600,2.25082666015625,0.02390008419752121,-0.04176788032054901,-0.15439607203006744
1667255162927306000,2.253305908203125,0.04222602769732475,-0.024052800610661507,-0.14950916171073914
1667255162929785000,2.25578515625,0.05994110554456711,-0.008170315995812416,-0.14828743040561676
1667255162932264400,2.258264404296875,0.07521272450685501,0.006490438245236874,-0.14523309469223022
1667255162934743800,2.260743896484375,0.08681915700435638,0.01259908638894558,-0.1415679156780243
1667255162937223000,2.263222900390625,0.10025817900896072,0.011377356946468353,-0.1366809904575348
1667255162939702300,2.265702392578125,0.10881029069423676,0.0034361144062131643,-0.13240493834018707
1667255162942181600,2.268181640625,0.11369720846414566,-0.012446369975805283,-0.125074565410614
1667255162944660700,2.27066064453125,0.11736239492893219,-0.033826638013124466,-0.11652245372533798
1667255162947140000,2.27314013671875,0.11736239492893219,-0.06192641705274582,-0.1049160286784172
1667255162949619500,2.275619384765625,0.11430807411670685,-0.09246965497732162,-0.09086613357067108
1667255162952098600,2.2780986328125,0.10881029069423676,-0.12240202724933624,-0.07498364895582199
1667255162954578000,2.280577880859375,0.10331250727176666,-0.15233440697193146,-0.057268574833869934
1667255162957057000,2.28305712890625,0.09537126123905182,-0.17860159277915955,-0.040775224566459656
1667255162959536400,2.285536376953125,0.08926261961460114,-0.20242531597614288,-0.02367101050913334
1667255162962015700,2.288015625,0.08437569439411163,-0.22563818097114563,-0.008399390615522861
1667255162964494800,2.290494873046875,0.08009964227676392,-0.24640758335590363,0.007483093533664942
1667255162966974200,2.29297412109375,0.07704532146453857,-0.2641226649284363,0.017256930470466614
1667255162969453600,2.29545361328125,0.07399099320173264,-0.2781725525856018,0.025809036567807198
1667255162971932700,2.2979326171875,0.06910407543182373,-0.2879463732242584,0.036193739622831345
1667255162974412000,2.300412109375,0.06177370250225067,-0.29100072383880615,0.04046979174017906
1667255162976891100,2.30289111328125,0.051389001309871674,-0.2897789776325226,0.04230238497257233
1667255162979370500,2.30537060546875,0.0397825688123703,-0.2830594778060913,0.045967575162649155
1667255162981849900,2.307849853515625,0.02390008419752121,-0.26962044835090637,0.04474584385752678
1667255162984329000,2.310328857421875,0.01107192412018776,-0.2531270980834961,0.04169152304530144
1667255162986808300,2.312808349609375,-0.0017562361899763346,-0.23419028520584106,0.0386371985077858
1667255162989287700,2.31528759765625,-0.012751801870763302,-0.21586434543132782,0.03436114266514778
1667255162991766800,2.317766845703125,-0.023747367784380913,-0.19814926385879517,0.028863361105322838
1667255162994246100,2.32024609375,-0.035964664071798325,-0.18226677179336548,0.023365577682852745
1667255162996725200,2.322725341796875,-0.048792824149131775,-0.16882775723934174,0.017867794260382652
1667255162999204600,2.32520458984375,-0.06589704006910324,-0.1559995859861374,0.011148282326757908
1667255163001684000,2.32768408203125,-0.08605557680130005,-0.14744748175144196,0.0038179049734026194
1667255163004163000,2.3301630859375,-0.1092684343457222,-0.1395062506198883,-0.003512472379952669
1667255163006642400,2.332642333984375,-0.1349247545003891,-0.1340084671974182,-0.013897174037992954
1667255163009121800,2.335121826171875,-0.15874847769737244,-0.13156500458717346,-0.022449281066656113
1667255163011601000,2.337600830078125,-0.1813504844903946,-0.1297324001789093,-0.03649916872382164
1667255163014080300,2.340080322265625,-0.2008981555700302,-0.12789981067180634,-0.050549060106277466
1667255163016559400,2.342559326171875,-0.22044582664966583,-0.12545634806156158,-0.0639880821108818
1667255163019038700,2.345038818359375,-0.23388485610485077,-0.1193477064371109,-0.07864884287118912
1667255163021518000,2.34751806640625,-0.2430478185415268,-0.10835213959217072,-0.09330959618091583
1667255163023997200,2.3499970703125,-0.2473238706588745,-0.09185878932476044,-0.10674861818552017
1667255163026476500,2.3524765625,-0.24976733326911926,-0.07108938694000244,-0.11957678198814392
1667255163028956000,2.354955810546875,-0.2485456019639969,-0.04604393243789673,-0.1311832070350647
1667255163031435000,2.35743505859375,-0.24671301245689392,-0.017333287745714188,-0.14217877388000488
1667255163033914400,2.359914306640625,-0.24426954984664917,0.01259908638894558,-0.15317434072494507
1667255163036393700,2.362393798828125,-0.24121522903442383,0.043753188103437424,-0.1623373180627823
1667255163038872800,2.364872802734375,-0.23877176642417908,0.07124210149049759,-0.17333288490772247
1667255163041352200,2.367352294921875,-0.23510658740997314,0.09567669779062271,-0.1818849891424179
1667255163043831300,2.369831298828125,-0.23144139349460602,0.11766783148050308,-0.19104796648025513
1667255163046310700,2.372310546875,-0.2271653413772583,0.13599377870559692,-0.20143266022205353
1667255163048790000,2.3747900390625,-0.22411102056503296,0.15187625586986542,-0.2087630331516266
1667255163051269000,2.37726904296875,-0.21983496844768524,0.16470441222190857,-0.21670427918434143
1667255163053748500,2.37974853515625,-0.21616977453231812,0.17631085216999054,-0.2228129357099533
1667255163056227800,2.382227783203125,-0.21067199110984802,0.183030366897583,-0.22953243553638458
1667255163058707000,2.38470703125,-0.20578506588935852,0.18608468770980835,-0.23258677124977112
1667255163061186300,2.387186279296875,-0.19906556606292725,0.18608468770980835,-0.2331976294517517
1667255163063665400,2.38966552734375,-0.19356778264045715,0.183030366897583,-0.23564109206199646
1667255163066144800,2.392144775390625,-0.18684826791286469,0.17692171037197113,-0.23564109206199646
1667255163068624100,2.3946240234375,-0.18196134269237518,0.16470441222190857,-0.23136503994464874
1667255163071103200,2.397103271484375,-0.17524182796478271,0.14943279325962067,-0.22708898782730103
1667255163073582600,2.39958251953125,-0.1703549176454544,0.1323285847902298,-0.22098033130168915
1667255163076062000,2.40206201171875,-0.16485713422298431,0.11339177191257477,-0.2130390852689743
1667255163078541000,2.404541015625,-0.15630502998828888,0.09384410083293915,-0.20448698103427887
1667255163081020400,2.4070205078125,-0.15141810476779938,0.07307469844818115,-0.19410228729248047
1667255163083499500,2.40949951171875,-0.14775292575359344,0.049861837178468704,-0.18432845175266266
1667255163085979000,2.411978759765625,-0.1446985900402069,0.026648975908756256,-0.17455461621284485
1667255163088458200,2.414458251953125,-0.14408773183822632,0.00038179047987796366,-0.16478078067302704
1667255163090937300,2.416937255859375,-0.14286600053310394,-0.024663666263222694,-0.1568395346403122
1667255163093416700,2.419416748046875,-0.14775292575359344,-0.050930850207805634,-0.14889828860759735
1667255163095896000,2.42189599609375,-0.150196373462677,-0.07719803601503372,-0.14340050518512726
1667255163098375200,2.424375244140625,-0.15325069427490234,-0.10163262486457825,-0.1409570425748825
1667255163100854500,2.4268544921875,-0.15691588819026947,-0.12606722116470337,-0.1360701322555542
1667255163103333600,2.429333740234375,-0.16241367161273956,-0.14866921305656433,-0.13423752784729004
1667255163105813000,2.43181298828125,-0.1654679924249649,-0.16699515283107758,-0.13301581144332886
1667255163108292400,2.434292236328125,-0.16913318634033203,-0.18532110750675201,-0.1311832070350647
1667255163110771500,2.436771484375,-0.17279838025569916,-0.19876012206077576,-0.12996147572994232
1667255163113250800,2.439250732421875,-0.17524182796478271,-0.20792309939861298,-0.1311832070350647
1667255163115730200,2.441730224609375,-0.1807396113872528,-0.21403174102306366,-0.13484840095043182
1667255163118209300,2.444209228515625,-0.1856265366077423,-0.21281002461910248,-0.13851359486579895
1667255163120688600,2.446688720703125,-0.19051344692707062,-0.20853395760059357,-0.14340050518512726
1667255163123168000,2.44916796875,-0.19478951394557953,-0.2012035846710205,-0.15256348252296448
1667255163125647000,2.451647216796875,-0.1966221034526825,-0.19509494304656982,-0.16539163887500763
1667255163128126500,2.45412646484375,-0.19784383475780487,-0.19020801782608032,-0.18127411603927612
1667255163130605600,2.45660546875,-0.1966221034526825,-0.1859319657087326,-0.19898919761180878
1667255163133085000,2.4590849609375,-0.19540037214756012,-0.18226677179336548,-0.2185368686914444
1667255163135564300,2.461564208984375,-0.19234605133533478,-0.17982332408428192,-0.24052800238132477
1667255163138043400,2.46404345703125,-0.18806999921798706,-0.17737986147403717,-0.2600756883621216
1667255163140522800,2.466522705078125,-0.18501566350460052,-0.17371466755867004,-0.2796233594417572
1667255163143002000,2.469002197265625,-0.18196134269237518,-0.16821688413619995,-0.2997818887233734
1667255163145481200,2.471481201171875,-0.1813504844903946,-0.15844304859638214,-0.31810784339904785
1667255163147960600,2.473960693359375,-0.18196134269237518,-0.14622575044631958,-0.3321577310562134
1667255163150439700,2.476439697265625,-0.18318307399749756,-0.13217586278915405,-0.3462076187133789
1667255163152919000,2.4789189453125,-0.18440480530261993,-0.11629338562488556,-0.35903576016426086
1667255163155398400,2.4813984375,-0.1856265366077423,-0.09674570709466934,-0.37003132700920105
1667255163157877500,2.48387744140625,-0.18440480530261993,-0.07719803601503372,-0.3822486400604248
1667255163160356900,2.48635693359375,-0.1807396113872528,-0.05826122686266899,-0.393244206905365
1667255163162836200,2.488836181640625,-0.17524182796478271,-0.03993528336286545,-0.40546149015426636
1667255163165315300,2.4913154296875,-0.1660788655281067,-0.024052800610661507,-0.41523534059524536
1667255163167794700,2.493794677734375,-0.1550832986831665,-0.013057234697043896,-0.42562004923820496
1667255163170274000,2.496274169921875,-0.14347685873508453,-0.003283398225903511,-0.4341721534729004
1667255163172753200,2.498753173828125,-0.13125957548618317,0.0016035200096666813,-0.44089165329933167
1667255163175232500,2.501232421875,-0.1196531355381012,0.004657844081521034,-0.44577857851982117
1667255163177711600,2.503711669921875,-0.1092684343457222,0.007101302966475487,-0.4445568323135376
1667255163180191000,2.50619091796875,-0.09949459880590439,0.008323032408952713,-0.44150251150131226
1667255163182670300,2.50867041015625,-0.08910989761352539,0.0077121676877141,-0.43600472807884216
1667255163185149400,2.5111494140625,-0.07872519642114639,0.0009926552884280682,-0.4280634820461273
1667255163187628800,2.51362890625,-0.0683404952287674,-0.008781181648373604,-0.41706791520118713
1667255163190108200,2.516108154296875,-0.05734493210911751,-0.023441936820745468,-0.402407169342041
1667255163192587300,2.518587158203125,-0.04696023091673851,-0.04176788032054901,-0.3871355652809143
1667255163195066600,2.521066650390625,-0.03657552972435951,-0.06375901401042938,-0.36942046880722046
1667255163197545700,2.523545654296875,-0.026190826669335365,-0.08819360285997391,-0.3510945439338684
1667255163200025000,2.526025146484375,-0.01824958436191082,-0.11507165431976318,-0.32849252223968506
1667255163202504400,2.52850439453125,-0.012140937149524689,-0.14133884012699127,-0.3058905303478241
1667255163204983600,2.530983642578125,-0.007254019379615784,-0.16699515283107758,-0.27717989683151245
1667255163207463000,2.533462890625,-0.0066431546583771706,-0.1914297491312027,-0.2484692484140396
1667255163209942300,2.5359423828125,-0.007864884100854397,-0.21403174102306366,-0.21731515228748322
1667255163212421400,2.53842138671875,-0.013362666592001915,-0.23663374781608582,-0.18371757864952087
1667255163214900700,2.540900634765625,-0.02130390889942646,-0.2586248815059662,-0.1519526094198227
1667255163217380000,2.543380126953125,-0.03107774630188942,-0.28061601519584656,-0.11835505068302155
1667255163219859200,2.545859130859375,-0.04024071618914604,-0.30077454447746277,-0.0896444097161293
1667255163222338600,2.548338623046875,-0.04940368980169296,-0.3203222155570984,-0.060322895646095276
1667255163224817700,2.550817626953125,-0.05917752534151077,-0.3386481702327728,-0.03711003437638283
1667255163227297000,2.553297119140625,-0.07078395783901215,-0.35941755771636963,-0.013286309316754341
1667255163229776400,2.5557763671875,-0.08300124853849411,-0.3765217661857605,0.0038179049734026194
1667255163232255500,2.55825537109375,-0.09338594973087311,-0.39423686265945435,0.017256930470466614
1667255163234734800,2.56073486328125,-0.10621411353349686,-0.41011935472488403,0.03252854943275452
1667255163237214200,2.563214111328125,-0.12087486684322357,-0.41989317536354065,0.04230238497257233
1667255163239693300,2.565693359375,-0.13675735890865326,-0.422947496175766,0.05024362727999687
1667255163242172700,2.568172607421875,-0.15447242558002472,-0.4217257797718048,0.05818486958742142
1667255163244651800,2.57065185546875,-0.1703549176454544,-0.4180605709552765,0.06123919412493706
1667255163247131100,2.573131103515625,-0.18745912611484528,-0.4076758921146393,0.0642935186624527
1667255163249610500,2.575610595703125,-0.20273074507713318,-0.39423686265945435,0.06551524996757507
1667255163252089600,2.578089599609375,-0.21311545372009277,-0.3771326541900635,0.061850059777498245
1667255163254569000,2.58056884765625,-0.22411102056503296,-0.3569740951061249,0.058795735239982605
1667255163257048300,2.58304833984375,-0.23327398300170898,-0.33192864060401917,0.055741410702466965
1667255163259527400,2.58552734375,-0.2375500351190567,-0.30566146969795227,0.05329795181751251
1667255163262006800,2.5880068359375,-0.24121522903442383,-0.28122687339782715,0.055741410702466965
1667255163264486100,2.590486083984375,-0.24426954984664917,-0.2543488144874573,0.05757400393486023
1667255163266965200,2.59296533203125,-0.24610215425491333,-0.23052509129047394,0.06123919412493706
1667255163269444600,2.595444580078125,-0.25098907947540283,-0.20914483070373535,0.06612611562013626
1667255163271923700,2.597923828125,-0.2540434002876282,-0.1914297491312027,0.07162389904260635
1667255163274403000,2.600403076171875,-0.2534325122833252,-0.17737986147403717,0.08078686892986298
1667255163276882400,2.60288232421875,-0.2528216540813446,-0.1651625633239746,0.0899498388171196
1667255163279361500,2.605361572265625,-0.2485456019639969,-0.15233440697193146,0.09789107739925385
1667255163281841000,2.6078408203125,-0.24121522903442383,-0.13767364621162415,0.10277800261974335
1667255163284320300,2.6103203125,-0.22899793088436127,-0.12056943774223328,0.10399972647428513
1667255163286799400,2.61279931640625,-0.21494804322719574,-0.10224349051713943,0.10277800261974335
1667255163289278700,2.61527880859375,-0.19906556606292725,-0.08636100590229034,0.09911280870437622
1667255163291757800,2.6177578125,-0.17951788008213043,-0.07170025259256363,0.09300415962934494
1667255163294237200,2.6202373046875,-0.15752676129341125,-0.05887209251523018,0.08689551800489426
1667255163296716500,2.622716552734375,-0.13675735890865326,-0.04909825697541237,0.08078686892986298
1667255163299195600,2.625195556640625,-0.11843141168355942,-0.03993528336286545,0.0746782198548317
1667255163301675000,2.627675048828125,-0.10254892706871033,-0.0319940410554409,0.06979130208492279
1667255163304154400,2.630154296875,-0.08788817375898361,-0.02283107116818428,0.06979130208492279
1667255163306633500,2.632633544921875,-0.07689260691404343,-0.01611155830323696,0.06979130208492279
1667255163309112800,2.63511279296875,-0.06711876392364502,-0.011224640533328056,0.07345648854970932
1667255163311592200,2.63759228515625,-0.06039925664663315,-0.008170315995812416,0.08200860023498535
1667255163314071300,2.6400712890625,-0.054901473224163055,-0.009392046369612217,0.08933897316455841
1667255163316550700,2.642550537109375,-0.05062541738152504,-0.012446369975805283,0.10216713696718216
1667255163319030000,2.645030029296875,-0.05001455545425415,-0.0191658828407526,0.11621702462434769
1667255163321509000,2.647509033203125,-0.0475710928440094,-0.02649625949561596,0.12904518842697144
1667255163323988500,2.649988525390625,-0.048792824149131775,-0.03932442143559456,0.14248420298099518
1667255163326467600,2.652467529296875,-0.051847148686647415,-0.05826122686266899,0.1565341055393219
1667255163328947000,2.654947021484375,-0.051847148686647415,-0.0784197673201561,0.16752967238426208
1667255163331426300,2.65742626953125,-0.05429060757160187,-0.09918916970491409,0.17913609743118286
1667255163333905400,2.659905517578125,-0.055512335151433945,-0.12362375855445862,0.18952079117298126
1667255163336384800,2.662384765625,-0.05612320080399513,-0.14683662354946136,0.20051635801792145
1667255163338864000,2.664864013671875,-0.05367974191904068,-0.16699515283107758,0.21090106666088104
1667255163341343200,2.66734326171875,-0.04940368980169296,-0.18715369701385498,0.2237292230129242
1667255163343822600,2.669822509765625,-0.04512763395905495,-0.20364704728126526,0.23533566296100616
1667255163346301700,2.6723017578125,-0.04085158184170723,-0.21830779314041138,0.2487746775150299
1667255163348781000,2.674781005859375,-0.03657552972435951,-0.2329685539007187,0.26282456517219543
1667255163351260400,2.677260498046875,-0.03352120518684387,-0.24579671025276184,0.2756527364253998
1667255163353739500,2.679739501953125,-0.03352120518684387,-0.2592357397079468,0.28787001967430115
1667255163356219000,2.682218994140625,-0.03657552972435951,-0.27572908997535706,0.2964221239089966
1667255163358698200,2.6846982421875,-0.03962985426187515,-0.29222244024276733,0.30375251173973083
1667255163361177300,2.68717724609375,-0.04451677203178406,-0.30749404430389404,0.30863943696022034
1667255163363656700,2.68965673828125,-0.0475710928440094,-0.3197113573551178,0.3092502951622009
1667255163366136000,2.692135986328125,-0.04818195849657059,-0.3252091407775879,0.3104720115661621
1667255163368615200,2.694615234375,-0.04818195849657059,-0.3258199989795685,0.3068068325519562
1667255163371094500,2.697094482421875,-0.045738499611616135,-0.32215481996536255,0.3019199073314667
1667255163373573600,2.69957373046875,-0.04085158184170723,-0.31787875294685364,0.2994764447212219
1667255163376053000,2.702052978515625,-0.035964664071798325,-0.31238096952438354,0.295811265707016
1667255163378532400,2.704532470703125,-0.028634287416934967,-0.30260714888572693,0.29214608669281006
1667255163381011500,2.707011474609375,-0.025579962879419327,-0.29222244024276733,0.2897026240825653
1667255163383490800,2.70949072265625,-0.021914774551987648,-0.2830594778060913,0.2890917658805847
1667255163385970200,2.71197021484375,-0.023136503994464874,-0.27084216475486755,0.28848087787628174
1667255163388449300,2.71444921875,-0.02496909722685814,-0.25984659790992737,0.2903134822845459
1667255163390928600,2.7169287109375,-0.02802342176437378,-0.24701844155788422,0.29275694489479065
1667255163393407700,2.71940771484375,-0.0322994738817215,-0.23357942700386047,0.29397866129875183
1667255163395887000,2.72188720703125,-0.03413207083940506,-0.2213621288537979,0.29764387011528015
1667255163398366500,2.724366455078125,-0.03657552972435951,-0.2067013680934906,0.2994764447212219
1667255163400845600,2.726845458984375,-0.03535379841923714,-0.19326233863830566,0.29764387011528015
1667255163403325000,2.729324951171875,-0.03535379841923714,-0.1816559135913849,0.2964221239089966
1667255163405804300,2.73180419921875,-0.03657552972435951,-0.17371466755867004,0.29214608669281006
1667255163408283400,2.734283447265625,-0.035964664071798325,-0.1706603467464447,0.28237223625183105
1667255163410762800,2.7367626953125,-0.032910339534282684,-0.16821688413619995,0.2744309902191162
1667255163413242000,2.7392421875,-0.0322994738817215,-0.16638429462909698,0.26099199056625366
1667255163415721200,2.74172119140625,-0.03168861195445061,-0.16699515283107758,0.24572035670280457
1667255163418200600,2.74420068359375,-0.0322994738817215,-0.16760602593421936,0.22983787953853607
1667255163420679700,2.7466796875,-0.032910339534282684,-0.16638429462909698,0.21151192486286163
1667255163423159000,2.749158935546875,-0.03535379841923714,-0.16210824251174927,0.19440771639347076
1667255163425638400,2.751638427734375,-0.03840812295675278,-0.1553887277841568,0.17486004531383514
1667255163428117500,2.754117431640625,-0.042073313146829605,-0.145614892244339,0.15470150113105774
1667255163430596900,2.756596923828125,-0.04634936526417732,-0.1346193253993988,0.13515383005142212
1667255163433076200,2.759076171875,-0.051847148686647415,-0.1193477064371109,0.1156061589717865
1667255163435555300,2.761555419921875,-0.054901473224163055,-0.10224349051713943,0.09605848789215088
1667255163438034700,2.76403466796875,-0.05917752534151077,-0.08208495378494263,0.07589995115995407
1667255163440513800,2.766513671875,-0.0628427118062973,-0.060093823820352554,0.0539088174700737
1667255163442993200,2.7689931640625,-0.06772962957620621,-0.03993528336286545,0.03558287397027016
1667255163445472500,2.771472412109375,-0.07139482349157333,-0.017333287745714188,0.017256930470466614
1667255163447951600,2.77395166015625,-0.07261654734611511,0.004657844081521034,0.0019853105768561363
1667255163450431000,2.776430908203125,-0.07383827865123749,0.026038112118840218,-0.010842849500477314
1667255163452910300,2.778910400390625,-0.07200568914413452,0.04558578506112099,-0.02306014485657215
1667255163455389400,2.781389404296875,-0.06772962957620621,0.06146826967597008,-0.031612250953912735
1667255163457868800,2.783868896484375,-0.0628427118062973,0.07612902671098709,-0.03711003437638283
1667255163460348000,2.786347900390625,-0.05734493210911751,0.08712458610534668,-0.04199695214629173
1667255163462827300,2.7888271484375,-0.05001455545425415,0.08956804871559143,-0.044440411031246185
1667255163465306600,2.791306640625,-0.04329504072666168,0.08529199659824371,-0.04260781779885292
1667255163467785700,2.79378564453125,-0.035964664071798325,0.07429642975330353,-0.043829549103975296
1667255163470265000,2.79626513671875,-0.02802342176437378,0.0602465383708477,-0.043829549103975296
1667255163472744400,2.798744384765625,-0.021914774551987648,0.043753188103437424,-0.041386090219020844
1667255163475223600,2.8012236328125,-0.014584396965801716,0.027259841561317444,-0.037720900028944016
1667255163477703000,2.803702880859375,-0.00603228947147727,0.010155626572668552,-0.02977965772151947
1667255163480182300,2.806182373046875,0.0031306820455938578,-0.00511599238961935,-0.02000582218170166
1667255163482661400,2.808661376953125,0.007406735327094793,-0.014278964139521122,-0.010842849500477314
1667255163485140700,2.811140625,0.011682788841426373,-0.01977674663066864,0.0032070400193333626
1667255163487620000,2.8136201171875,0.012904518283903599,-0.02283107116818428,0.016035201027989388
1667255163490099200,2.81609912109375,0.013515383005142212,-0.024052800610661507,0.027030766010284424
1667255163492578600,2.81857861328125,0.010461059398949146,-0.023441936820745468,0.03558287397027016
1667255163495057700,2.8210576171875,0.00679587060585618,-0.02283107116818428,0.04046979174017906
1667255163497537000,2.823537109375,0.004352411720901728,-0.02588539570569992,0.04046979174017906
1667255163500016400,2.826016357421875,-0.0005345066892914474,-0.0319940410554409,0.036804601550102234
1667255163502495500,2.82849560546875,-0.0035888305865228176,-0.03871355578303337,0.02825249545276165
1667255163504974800,2.830974853515625,-0.004810560029000044,-0.044211339205503464,0.01908952370285988
1667255163507454200,2.8334541015625,-0.00847574882209301,-0.04604393243789673,0.011148282326757908
1667255163509933300,2.835933349609375,-0.012140937149524689,-0.04298960790038109,0.0001527161948615685
1667255163512412700,2.83841259765625,-0.01763872057199478,-0.040546149015426636,-0.011453714221715927
1667255163514892000,2.84089208984375,-0.0243582334369421,-0.033826638013124466,-0.021227551624178886
1667255163517371100,2.84337109375,-0.03168861195445061,-0.027107125148177147,-0.02916879393160343
1667255163519850500,2.8458505859375,-0.04024071618914604,-0.017944153398275375,-0.03711003437638283
1667255163522329600,2.84832958984375,-0.04940368980169296,-0.006337722297757864,-0.04321868345141411
1667255163524809000,2.85080908203125,-0.06039925664663315,0.005268708802759647,-0.04993819445371628
1667255163527288300,2.853288330078125,-0.07200568914413452,0.0193185992538929,-0.05604684352874756
1667255163529767400,2.855767333984375,-0.08544471114873886,0.033368486911058426,-0.06520981341600418
1667255163532246800,2.858246826171875,-0.0988837331533432,0.04558578506112099,-0.0743727833032608
1667255163534726100,2.86072607421875,-0.11171189695596695,0.0553596206009388,-0.08292489498853683
1667255163537205200,2.863205322265625,-0.1245400533080101,0.05230529606342316,-0.0902552679181099
1667255163539684600,2.8656845703125,-0.1343138962984085,0.043753188103437424,-0.09636391699314117
1667255163542164000,2.8681640625,-0.14347685873508453,0.033979352563619614,-0.10430516302585602
1667255163544643000,2.87064306640625,-0.14897464215755463,0.0193185992538929,-0.11468986421823502
1667255163547122400,2.873122314453125,-0.15202897787094116,0.0077121676877141,-0.12385283410549164
1667255163549601500,2.8756015625,-0.15691588819026947,-0.002061668550595641,-0.13362666964530945
1667255163552081000,2.878080810546875,-0.15813761949539185,-0.009392046369612217,-0.14217877388000488
1667255163554560300,2.880560302734375,-0.15935935080051422,-0.017333287745714188,-0.14950916171073914
1667255163557039400,2.883039306640625,-0.15691588819026947,-0.023441936820745468,-0.15561780333518982
1667255163559518700,2.885518798828125,-0.1550832986831665,-0.030161447823047638,-0.16050471365451813
1667255163561998000,2.887998046875,-0.15141810476779938,-0.03260490670800209,-0.16478078067302704
1667255163564477200,2.890477294921875,-0.1453094631433487,-0.024052800610661507,-0.1721111536026001
1667255163566956500,2.89295654296875,-0.13675735890865326,-0.017333287745714188,-0.18005239963531494
1667255163569436000,2.895435791015625,-0.1300378441810608,-0.017333287745714188,-0.18371757864952087
1667255163571915000,2.8979150390625,-0.12392919510602951,-0.013668099418282509,-0.18860450387001038
1667255163574394400,2.900394287109375,-0.12392919510602951,-0.006337722297757864,-0.19349141418933868
1667255163576873500,2.90287353515625,-0.12392919510602951,0.005268708802759647,-0.20021092891693115
1667255163579352800,2.905352783203125,-0.129426971077919,0.018096869811415672,-0.2075413018465042
1667255163581832200,2.907832275390625,-0.1404225379228592,0.033368486911058426,-0.21914774179458618
1667255163584311300,2.910311279296875,-0.1508072465658188,0.04558578506112099,-0.228921577334404
1667255163586790700,2.912790771484375,-0.16302454471588135,0.05658135190606117,-0.24113887548446655
1667255163589270000,2.91527001953125,-0.17890702188014984,0.06391172856092453,-0.25641047954559326
1667255163591749000,2.9177490234375,-0.19295690953731537,0.06940951198339462,-0.2704603672027588
1667255163594228500,2.920228515625,-0.2063959389925003,0.07673988491296768,-0.2857320010662079
1667255163596707800,2.922707763671875,-0.2167806327342987,0.08529199659824371,-0.3016144931316376
1667255163599187000,2.92518701171875,-0.22472187876701355,0.09750928729772568,-0.31871870160102844
1667255163601666300,2.927666259765625,-0.2320522516965866,0.10911571979522705,-0.33337944746017456
1667255163604145400,2.9301455078125,-0.23449571430683136,0.12255474925041199,-0.3455967605113983
1667255163606624800,2.932624755859375,-0.2381609082221985,0.13660463690757751,-0.3578140437602997
1667255163609104100,2.935104248046875,-0.23999349772930145,0.15126539766788483,-0.36880961060523987
1667255163611583200,2.937583251953125,-0.24182608723640442,0.1683696061372757,-0.37919431924819946
1667255163614062600,2.9400625,-0.24426954984664917,0.18669554591178894,-0.3883572816848755
1667255163616542000,2.9425419921875,-0.24182608723640442,0.20624321699142456,-0.39568766951560974
1667255163619021000,2.94502099609375,-0.23877176642417908,0.22701261937618256,-0.4036289155483246
1667255163621500400,2.94750048828125,-0.23021966218948364,0.24656029045581818,-0.40973755717277527
1667255163623979500,2.9499794921875,-0.2222784161567688,0.2648862302303314,-0.4134027361869812
1667255163626459000,2.952458984375,-0.2118937224149704,0.28260132670402527,-0.4134027361869812
1667255163628938200,2.954938232421875,-0.19845469295978546,0.2972620725631714,-0.4134027361869812
1667255163631417300,2.957417236328125,-0.1856265366077423,0.31009024381637573,-0.41462448239326477
1667255163633896700,2.959896728515625,-0.17707443237304688,0.3161988854408264,-0.41157013177871704
1667255163636376000,2.9623759765625,-0.16791145503520966,0.3174206018447876,-0.41034841537475586
1667255163638855200,2.964855224609375,-0.16424626111984253,0.31375542283058167,-0.4091266989707947
1667255163641334500,2.96733447265625,-0.1599702090024948,0.3015381395816803,-0.4030180275440216
1667255163643814000,2.96981396484375,-0.15935935080051422,0.2856556475162506,-0.3993528485298157
1667255163646293000,2.97229296875,-0.15752676129341125,0.266107976436615,-0.39141160249710083
1667255163648772400,2.9747724609375,-0.1550832986831665,0.2404516488313675,-0.3816377818584442
1667255163651251500,2.97725146484375,-0.15447242558002472,0.21051926910877228,-0.37003132700920105
1667255163653730800,2.979730712890625,-0.15202897787094116,0.17631085216999054,-0.3565923273563385
1667255163656210200,2.982210205078125,-0.150196373462677,0.14088068902492523,-0.3370446562767029
1667255163658689300,2.984689208984375,-0.14775292575359344,0.10300707072019577,-0.3119991719722748
1667255163661168600,2.987168701171875,-0.14347685873508453,0.06207913160324097,-0.28756460547447205
1667255163663648000,2.98964794921875,-0.13858994841575623,0.019929463043808937,-0.2533561587333679
1667255163666127000,2.992127197265625,-0.13187043368816376,-0.024052800610661507,-0.22098033130168915
1667255163668606500,2.9946064453125,-0.12820523977279663,-0.06498073786497116,-0.18432845175266266
1667255163671085800,2.9970859375,-0.1245400533080101,-0.10590868443250656,-0.14828743040561676
1667255163673565000,2.99956494140625,-0.12209659814834595,-0.14378230273723602,-0.11285726726055145
1667255163676044300,3.002044189453125,-0.12087486684322357,-0.1804341822862625,-0.07742711156606674
1667255163678523600,3.004523681640625,-0.1190422773361206,-0.21525347232818604,-0.04566214233636856
1667255163681002800,3.007002685546875,-0.11476621776819229,-0.2482401728630066,-0.013897174037992954
1667255163683482000,3.009482177734375,-0.11232276260852814,-0.2775616943836212,0.012370011769235134
1667255163685961200,3.011961181640625,-0.10987929999828339,-0.30749404430389404,0.036193739622831345
1667255163688440600,3.014440673828125,-0.10804671049118042,-0.3343721032142639,0.05757400393486023
1667255163690920000,3.016919921875,-0.10682497918605804,-0.3557523787021637,0.07528908550739288
1667255163693399000,3.01939892578125,-0.10987929999828339,-0.3716348707675934,0.08933897316455841
1667255163695878400,3.02187841796875,-0.11232276260852814,-0.38263043761253357,0.1003345400094986
1667255163698357800,3.024357666015625,-0.11720968037843704,-0.38385215401649475,0.10949750989675522
1667255163700836900,3.0268369140625,-0.12087486684322357,-0.37774351239204407,0.11377356201410294
1667255163703316200,3.029316162109375,-0.12637265026569366,-0.3661370873451233,0.11621702462434769
1667255163705795600,3.031795654296875,-0.13187043368816376,-0.34842199087142944,0.11499529331922531
1667255163708274700,3.034274658203125,-0.13858994841575623,-0.330706924200058,0.1107192412018776
1667255163710754000,3.036754150390625,-0.1446985900402069,-0.3105483949184418,0.10583232343196869
1667255163713233400,3.0392333984375,-0.14775292575359344,-0.2897789776325226,0.09361502528190613
1667255163715712500,3.04171240234375,-0.15325069427490234,-0.2683987021446228,0.07895427197217941
1667255163718191900,3.04419189453125,-0.15874847769737244,-0.247629314661026,0.06246092543005943
