time,seconds_elapsed,z,y,x
1667255121891503900,-0.00249609375,0.38942813873291016,0.34953752160072327,0.05391228199005127
1667255121896462300,0.00246240234375,0.3739910125732422,0.38192805647850037,0.06837630271911621
1667255121901420800,0.0074208984375,0.3389778137207031,0.38552284240722656,0.10171687602996826
1667255121906379500,0.012379638671875,0.3152313232421875,0.32006722688674927,0.16100811958312988
1667255121911338000,0.017337890625,0.2915534973144531,0.2474278062582016,0.2444450855255127
1667255121916296400,0.02229638671875,0.26025867462158203,0.163492351770401,0.3154710531234741
1667255121921255000,0.0272548828125,0.222137451171875,0.09755641222000122,0.332714319229126
1667255121926213600,0.032213623046875,0.13918685913085938,0.014469921588897705,0.322857141494751
1667255121931172000,0.037172119140625,0.01875782012939453,-0.06165832281112671,0.34150969982147217
1667255121936130600,0.042130615234375,0.03228282928466797,-0.11945776641368866,0.2766704559326172
1667255121941089000,0.047089111328125,-0.012853622436523438,-0.16199743747711182,0.19031882286071777
1667255121946047700,0.0520478515625,-0.20061206817626953,-0.20026148855686188,0.15555024147033691
1667255121951006200,0.057006103515625,-0.39534950256347656,-0.21496906876564026,0.154052734375
1667255121955964700,0.061964599609375,-0.5418243408203125,-0.20179691910743713,0.1217491626739502
1667255121960923100,0.066923095703125,-0.6018466949462891,-0.2033354938030243,0.05498647689819336
1667255121965881600,0.071881591796875,-0.5463743209838867,-0.2138160765171051,0.055585384368896484
1667255121970840300,0.07684033203125,-0.46690845489501953,-0.16125911474227905,0.10291886329650879
1667255121975798800,0.081798828125,-0.4747934341430664,-0.1765243113040924,0.09924578666687012
1667255121980757200,0.08675732421875,-0.4387502670288086,-0.20194309949874878,0.018095731735229492
1667255121985715700,0.0917158203125,-0.05315971374511719,0.24711421132087708,0.13059186935424805
1667255121990674400,0.09667431640625,0.49620819091796875,0.6828644871711731,0.30600786209106445
1667255121995633000,0.1016328125,1.0712699890136719,0.9867054224014282,0.4826335906982422
1667255122000591400,0.10659130859375,1.5893211364746094,1.132805585861206,0.603752851486206
1667255122005549800,0.1115498046875,1.9872665405273438,1.1181671619415283,0.8009624481201172
1667255122010508300,0.11650830078125,2.15248966217041,0.935463547706604,1.0329947471618652
1667255122015467000,0.121467041015625,2.111928939819336,0.5762476325035095,1.162158489227295
1667255122020425500,0.126425537109375,1.8749094009399414,0.1432480812072754,1.1469452381134033
1667255122025384000,0.131384033203125,1.508199691772461,-0.23567473888397217,1.04103422164917
1667255122030342700,0.1363427734375,1.0196170806884766,-0.4783334732055664,0.9061822891235352
1667255122035301000,0.141301025390625,0.44565677642822266,-0.6150732636451721,0.813988208770752
1667255122040259600,0.146259521484375,-0.03968620300292969,-0.6774634122848511,0.6547551155090332
1667255122045218000,0.151218017578125,-0.4647684097290039,-0.7158963680267334,0.4206655025482178
1667255122050176800,0.1561767578125,-0.7695512771606445,-0.8179287910461426,0.09334683418273926
1667255122055135200,0.16113525390625,-1.0002365112304688,-0.7978360056877136,-0.09419059753417969
1667255122060093700,0.16609375,-1.04901123046875,-0.666107177734375,-0.14927387237548828
1667255122065052200,0.17105224609375,-0.906102180480957,-0.4667685925960541,-0.1684737205505371
1667255122070010600,0.1760107421875,-0.7894134521484375,-0.2901327311992645,0.004815816879272461
1667255122074969300,0.18096923828125,-0.6468114852905273,-0.14701753854751587,0.24421167373657227
1667255122079927800,0.185927734375,-0.4242429733276367,0.005773961544036865,0.5316390991210938
1667255122084886300,0.19088623046875,-0.15692710876464844,0.13479268550872803,0.8855462074279785
1667255122089844700,0.1958447265625,0.08803653717041016,0.1694316267967224,1.1865460872650146
1667255122094803200,0.20080322265625,0.28716182708740234,0.12702667713165283,1.325368881225586
1667255122099762000,0.205761962890625,0.5788345336914062,0.036239564418792725,1.3827123641967773
1667255122104720400,0.210720458984375,0.8280677795410156,-0.009797811508178711,1.4098756313323975
1667255122109678800,0.215678955078125,0.8030500411987305,-0.09624624252319336,1.340066909790039
1667255122114637300,0.22063720703125,0.4778861999511719,-0.29874110221862793,1.0456750392913818
1667255122119596000,0.225595947265625,0.40938758850097656,-0.5456774830818176,0.6072890758514404
1667255122124554500,0.230554443359375,0.34302234649658203,-0.720199704170227,0.22336506843566895
1667255122129513000,0.235512939453125,0.14328479766845703,-0.8443571925163269,-0.0388188362121582
1667255122134471400,0.240471435546875,-0.07589912414550781,-0.934199333190918,-0.2536187171936035
1667255122139430100,0.24543017578125,-0.26716041564941406,-0.951547384262085,-0.3355565071105957
1667255122144388600,0.250388671875,-0.3747129440307617,-0.8939987421035767,-0.34705591201782227
1667255122149347000,0.25534716796875,-0.3921070098876953,-0.8150020241737366,-0.2405109405517578
1667255122154305500,0.260305419921875,-0.3691873550415039,-0.73418128490448,-0.09071993827819824
1667255122159264300,0.26526416015625,-0.2916145324707031,-0.6955146789550781,-0.18368196487426758
1667255122164222700,0.27022265625,-0.06792068481445312,-0.6537816524505615,-0.28803086280822754
1667255122169181200,0.27518115234375,0.16205120086669922,-0.6089349985122681,-0.3553190231323242
1667255122174139600,0.2801396484375,0.29538822174072266,-0.5505907535552979,-0.3730318546295166
1667255122179098000,0.28509814453125,0.28824520111083984,-0.45951902866363525,-0.29673051834106445
1667255122184056800,0.290056884765625,0.15843486785888672,-0.31260234117507935,-0.1435556411743164
1667255122189015300,0.295015380859375,-0.007107734680175781,-0.13124853372573853,-0.0116729736328125
1667255122193973800,0.299973876953125,-0.24527645111083984,0.014663159847259521,0.014722347259521484
1667255122198932200,0.30493212890625,-0.4780406951904297,0.06658649444580078,-0.0026540756225585938
1667255122203891000,0.309890869140625,-0.6069564819335938,0.08538371324539185,-0.030805110931396484
1667255122208849400,0.314849365234375,-0.6633701324462891,0.1607547402381897,0.0004444122314453125
1667255122213807900,0.319807861328125,-0.5953340530395508,0.23272991180419922,0.05268096923828125
1667255122218766300,0.324766357421875,-0.5107545852661133,0.2926221489906311,0.17287492752075195
1667255122223724800,0.329724853515625,-0.42496490478515625,0.3578009605407715,0.23817920684814453
1667255122228683500,0.33468359375,-0.37175941467285156,0.35562217235565186,0.27212953567504883
1667255122233642000,0.33964208984375,-0.28051090240478516,0.32303881645202637,0.252899169921875
1667255122238600400,0.344600341796875,-0.21864986419677734,0.25418901443481445,0.16517877578735352
1667255122243559000,0.349558837890625,-0.11248779296875,0.10304653644561768,0.016851425170898438
1667255122248517600,0.354517578125,0.037505149841308594,-0.09299176931381226,-0.16189956665039062
1667255122253476000,0.35947607421875,0.14465618133544922,-0.27446192502975464,-0.28110456466674805
1667255122258434600,0.3644345703125,0.21194839477539062,-0.40845590829849243,-0.39484071731567383
1667255122263393000,0.36939306640625,0.3098106384277344,-0.487358033657074,-0.4988584518432617
1667255122268351700,0.374351806640625,0.3990621566772461,-0.562533974647522,-0.5877366065979004
1667255122273310200,0.379310302734375,0.5234575271606445,-0.633763313293457,-0.6816105842590332
1667255122278268700,0.3842685546875,0.6388063430786133,-0.7057837843894958,-0.7755932807922363
1667255122283227100,0.38922705078125,0.7889938354492188,-0.7783721089363098,-0.7609577178955078
1667255122288185600,0.394185546875,0.9194574356079102,-0.8149293661117554,-0.709071159362793
1667255122293144300,0.399144287109375,0.9772062301635742,-0.8392403721809387,-0.7220461368560791
1667255122298102800,0.404102783203125,1.041158676147461,-0.8726745843887329,-0.8382012844085693
1667255122303061200,0.409061279296875,1.1750993728637695,-0.881094217300415,-0.9509367942810059
1667255122308019700,0.414019775390625,1.2305574417114258,-0.9206384420394897,-1.0025711059570312
1667255122312978400,0.418978515625,1.1933259963989258,-0.9435559511184692,-1.0759754180908203
1667255122317937000,0.42393701171875,1.0920543670654297,-0.9212818145751953,-1.2072367668151855
1667255122322895400,0.428895263671875,0.9654417037963867,-0.907171368598938,-1.2315173149108887
1667255122327853800,0.433853759765625,0.9671249389648438,-0.8699557781219482,-1.2295434474945068
1667255122332812500,0.4388125,1.0382881164550781,-0.798998236656189,-1.1222734451293945
1667255122337771000,0.44377099609375,1.0754785537719727,-0.6791955828666687,-0.8594169616699219
1667255122342729500,0.4487294921875,1.1074857711791992,-0.5195409655570984,-0.5280971527099609
1667255122347688000,0.45368798828125,1.2833261489868164,-0.3233373761177063,-0.21883201599121094
1667255122352646700,0.458646728515625,1.5151023864746094,-0.11849832534790039,0.010184288024902344
1667255122357605000,0.463605224609375,1.692789077758789,0.12671267986297607,0.06812286376953125
1667255122362563600,0.4685634765625,1.781656265258789,0.35502737760543823,-0.000056743621826171875
1667255122367522000,0.47352197265625,1.8805007934570312,0.5109911561012268,-0.11395645141601562
1667255122372480800,0.478480712890625,1.9500713348388672,0.5243905186653137,-0.22410345077514648
1667255122377439200,0.483439208984375,1.8782577514648438,0.36983025074005127,-0.3352503776550293
1667255122382397700,0.488397705078125,1.7089157104492188,0.08834034204483032,-0.4622025489807129
1667255122387356200,0.493356201171875,1.5068187713623047,-0.1829705834388733,-0.6313862800598145
1667255122392314600,0.498314697265625,1.4720382690429688,-0.4038086235523224,-0.8278961181640625
1667255122397273300,0.5032734375,1.5948362350463867,-0.5747523307800293,-0.9613604545593262
1667255122402231800,0.508231689453125,1.6778602600097656,-0.6652463674545288,-1.007978916168213
1667255122407190300,0.513190185546875,1.6880245208740234,-0.6980239152908325,-1.0522160530090332
1667255122412148700,0.518148681640625,1.6577978134155273,-0.7177180051803589,-1.0973210334777832
1667255122417107200,0.523107177734375,1.5551605224609375,-0.7396401166915894,-1.0917844772338867
1667255122422066000,0.52806591796875,1.4821863174438477,-0.752464234828949,-1.075613021850586
1667255122427024400,0.5330244140625,1.422684669494629,-0.7505201697349548,-1.0221586227416992
1667255122431982800,0.53798291015625,1.2945575714111328,-0.7516511678695679,-0.9969296455383301
1667255122436941300,0.54294140625,1.1029090881347656,-0.7215316295623779,-1.022019863128662
1667255122441900000,0.547900146484375,0.8561735153198242,-0.6594910025596619,-1.0514421463012695
1667255122446858500,0.5528583984375,0.5640544891357422,-0.5455175042152405,-1.0066609382629395
1667255122451817000,0.55781689453125,0.2197437286376953,-0.43698573112487793,-0.9263029098510742
1667255122456775400,0.562775390625,-0.11560344696044922,-0.37283068895339966,-0.8823122978210449
1667255122461734100,0.567734130859375,-0.41351985931396484,-0.407256543636322,-0.9587979316711426
1667255122466692600,0.572692626953125,-0.7578191757202148,-0.4817574918270111,-1.051469326019287
1667255122471651000,0.577651123046875,-1.0511722564697266,-0.5116117000579834,-1.1043500900268555
1667255122476609500,0.582609619140625,-1.1798629760742188,-0.5306911468505859,-1.0454010963439941
1667255122481568300,0.587568359375,-1.1109342575073242,-0.5695837140083313,-1.0066823959350586
1667255122486526700,0.592526611328125,-0.963651180267334,-0.5496872663497925,-0.9090256690979004
1667255122491485200,0.597485107421875,-0.7591400146484375,-0.47615179419517517,-0.7758035659790039
1667255122496443600,0.602443603515625,-0.5443811416625977,-0.3284273147583008,-0.631591796875
1667255122501402000,0.607402099609375,-0.33879995346069336,-0.13953232765197754,-0.4437375068664551
1667255122506360800,0.61236083984375,-0.1529531478881836,0.07812723517417908,-0.2903919219970703
1667255122511319300,0.6173193359375,0.021240234375,0.30550476908683777,-0.20639705657958984
1667255122516277800,0.62227783203125,0.15341854095458984,0.45709824562072754,-0.10885381698608398
1667255122521236200,0.627236328125,0.3700103759765625,0.6416055560112,0.10017585754394531
1667255122526195000,0.63219482421875,0.6250762939453125,0.8008514642715454,0.4413313865661621
1667255122531153400,0.6371533203125,0.7378664016723633,0.8740186095237732,0.5927681922912598
1667255122536111900,0.64211181640625,0.757349967956543,0.8754998445510864,0.8305912017822266
1667255122541070300,0.6470703125,0.7821989059448242,0.8955123424530029,1.035489559173584
1667255122546029000,0.652029052734375,0.7545680999755859,0.9595238566398621,1.2544078826904297
1667255122550987500,0.656987548828125,0.7702436447143555,0.931444525718689,1.3249154090881348
1667255122555946000,0.661946044921875,0.7278099060058594,0.8640265464782715,1.3805761337280273
1667255122560904400,0.666904541015625,0.6724834442138672,0.737464427947998,1.3072710037231445
1667255122565863200,0.67186328125,0.6167783737182617,0.5381074547767639,1.1157121658325195
1667255122570821600,0.676821533203125,0.6153364181518555,0.21844404935836792,0.7283735275268555
1667255122575780000,0.681780029296875,0.577692985534668,-0.2871930003166199,0.3092312812805176
1667255122580738600,0.686738525390625,0.4304323196411133,-0.6803147792816162,-0.05810737609863281
1667255122585697000,0.691697021484375,0.45651721954345703,-0.8621116876602173,-0.3230781555175781
1667255122590655700,0.69665576171875,0.5249814987182617,-1.0111984014511108,-0.6592669486999512
1667255122595614200,0.7016142578125,0.49710655212402344,-1.1839286088943481,-0.9831843376159668
1667255122600572700,0.70657275390625,0.4228239059448242,-1.3305989503860474,-1.2879228591918945
1667255122605531100,0.71153125,0.33513927459716797,-1.3452651500701904,-1.376634120941162
1667255122610489900,0.71648974609375,0.22106075286865234,-1.2969542741775513,-1.539381504058838
1667255122615448300,0.7214482421875,0.14439868927001953,-1.2144681215286255,-1.686192512512207
1667255122620406800,0.72640673828125,0.11281776428222656,-1.0651544332504272,-1.6340503692626953
1667255122625365200,0.731365234375,0.1321544647216797,-0.8476147651672363,-1.5236058235168457
1667255122630323700,0.73632373046875,0.2486114501953125,-0.6709299087524414,-1.420860767364502
1667255122635282400,0.741282470703125,0.3367652893066406,-0.5365005731582642,-1.3365025520324707
1667255122640241000,0.746240966796875,0.41652822494506836,-0.43332159519195557,-1.2910842895507812
1667255122645199400,0.751199462890625,0.5177044868469238,-0.30072736740112305,-1.1868839263916016
1667255122650157800,0.75615771484375,0.46697378158569336,-0.30028069019317627,-1.102257251739502
1667255122655116500,0.761116455078125,0.36649084091186523,-0.24582648277282715,-0.9479937553405762
1667255122660075000,0.766074951171875,0.5113959312438965,-0.10939013957977295,-0.8643460273742676
1667255122665033500,0.771033447265625,0.652869701385498,0.01651895046234131,-0.8387279510498047
1667255122669992000,0.775991943359375,0.9231224060058594,0.10195136070251465,-0.8279871940612793
1667255122674950700,0.78095068359375,1.2029266357421875,0.1574345827102661,-0.7706432342529297
1667255122679909000,0.7859091796875,1.4111533164978027,0.17375731468200684,-0.7250089645385742
1667255122684867600,0.79086767578125,1.5101995468139648,0.13232827186584473,-0.7338547706604004
1667255122689826000,0.795825927734375,1.5844264030456543,0.08953797817230225,-0.7284326553344727
1667255122694784800,0.80078466796875,1.5163888931274414,0.009757280349731445,-0.698512077331543
1667255122699743200,0.8057431640625,1.5444145202636719,-0.12584054470062256,-0.6106553077697754
1667255122704701700,0.81070166015625,1.68308687210083,-0.2109769582748413,-0.49125194549560547
1667255122709660200,0.81566015625,1.8837337493896484,-0.23660874366760254,-0.31891679763793945
1667255122714618600,0.82061865234375,2.067417621612549,-0.17588388919830322,-0.09543228149414062
1667255122719577300,0.825577392578125,2.2561798095703125,-0.08885741233825684,0.23162269592285156
1667255122724535800,0.830535888671875,2.497490406036377,0.02921581268310547,0.5461640357971191
1667255122729494300,0.835494384765625,2.6426072120666504,0.13577210903167725,0.7990574836730957
1667255122734452700,0.84045263671875,2.7391252517700195,0.19242513179779053,1.023188591003418
1667255122739411500,0.845411376953125,2.758638858795166,0.15909481048583984,1.153416633605957
1667255122744370000,0.850369873046875,2.6674065589904785,0.1414339542388916,1.2197751998901367
1667255122749328400,0.855328369140625,2.4388203620910645,0.0642392635345459,1.2620315551757812
1667255122754286800,0.860286865234375,2.215898036956787,-0.010202407836914062,1.1788616180419922
1667255122759245600,0.86524560546875,2.1056623458862305,-0.15226256847381592,1.0521459579467773
1667255122764204000,0.8702041015625,1.991382122039795,-0.30701327323913574,0.9151339530944824
1667255122769162500,0.87516259765625,1.8347063064575195,-0.4578821659088135,0.7933392524719238
1667255122774121000,0.880120849609375,1.6650147438049316,-0.5291662216186523,0.6850008964538574
1667255122779079700,0.88507958984375,1.3943371772766113,-0.5670013427734375,0.5758647918701172
1667255122784038100,0.8900380859375,1.1050171852111816,-0.5769588947296143,0.47823286056518555
1667255122788996600,0.89499658203125,0.8691277503967285,-0.5744894742965698,0.34148550033569336
1667255122793955000,0.899955078125,0.6617164611816406,-0.5786066055297852,0.15121126174926758
1667255122798913500,0.90491357421875,0.4166278839111328,-0.6043944358825684,-0.032204627990722656
1667255122803872300,0.909872314453125,0.11596059799194336,-0.6631244421005249,-0.21203088760375977
1667255122808830700,0.914830810546875,-0.21299505233764648,-0.7324869632720947,-0.38540124893188477
1667255122813789200,0.9197890625,-0.5178265571594238,-0.8831520080566406,-0.5449771881103516
1667255122818747600,0.92474755859375,-0.7683753967285156,-1.037960171699524,-0.6841211318969727
1667255122823706400,0.929706298828125,-0.9243688583374023,-1.1336665153503418,-0.7958731651306152
1667255122828664800,0.934664794921875,-0.963892936706543,-1.1290024518966675,-0.8301959037780762
1667255122833623300,0.939623291015625,-0.9413690567016602,-1.0162274837493896,-0.8336610794067383
1667255122838581800,0.944581787109375,-0.9137845039367676,-0.7967590093612671,-0.8866081237792969
1667255122843540200,0.949540283203125,-0.8307361602783203,-0.5643347501754761,-0.8857698440551758
1667255122848499000,0.9544990234375,-0.733365535736084,-0.4061638116836548,-0.8394298553466797
1667255122853457400,0.95945751953125,-0.7074165344238281,-0.3534104824066162,-0.7991471290588379
1667255122858415900,0.964415771484375,-0.6026887893676758,-0.39178264141082764,-0.8196048736572266
1667255122863374300,0.969374267578125,-0.4505581855773926,-0.4034616947174072,-0.9160351753234863
1667255122868333000,0.9743330078125,-0.27387380599975586,-0.4177396297454834,-1.0417470932006836
1667255122873291500,0.97929150390625,-0.10020303726196289,-0.40297961235046387,-1.1859221458435059
1667255122878250000,0.98425,0.06917047500610352,-0.33654963970184326,-1.3033275604248047
1667255122883208400,0.98920849609375,0.21979665756225586,-0.23572611808776855,-1.4190034866333008
1667255122888167200,0.994167236328125,0.39449071884155273,-0.15342402458190918,-1.5281457901000977
1667255122893125600,0.999125732421875,0.5619268417358398,-0.11865401268005371,-1.577085018157959
1667255122898084000,1.004083984375,0.7220067977905273,-0.05906260013580322,-1.4720234870910645
1667255122903042600,1.00904248046875,0.7422633171081543,0.052083611488342285,-1.372896671295166
1667255122908001300,1.014001220703125,0.7030425071716309,0.1334322690963745,-1.2818174362182617
1667255122912959700,1.018959716796875,0.6791605949401855,0.23023700714111328,-1.2255353927612305
1667255122917918200,1.023918212890625,0.6626958847045898,0.33281266689300537,-1.2042536735534668
1667255122922876700,1.028876708984375,0.6219482421875,0.37689661979675293,-1.2205171585083008
1667255122927835400,1.03383544921875,0.5109920501708984,0.33947932720184326,-1.3147950172424316
1667255122932793900,1.0387939453125,0.3981919288635254,0.25150537490844727,-1.443756103515625
1667255122937752300,1.04375244140625,0.3355855941772461,0.15567314624786377,-1.5876555442810059
1667255122942710800,1.048710693359375,0.271176815032959,0.07204759120941162,-1.6885695457458496
1667255122947669200,1.053669189453125,0.25899410247802734,-0.02935028076171875,-1.8316059112548828
1667255122952628000,1.0586279296875,0.21677160263061523,-0.14141464233398438,-1.9819674491882324
1667255122957586400,1.06358642578125,0.032248497009277344,-0.272627592086792,-2.099548816680908
1667255122962545000,1.068544921875,-0.0738224983215332,-0.3651771545410156,-2.180624008178711
1667255122967503400,1.07350341796875,-0.0013794898986816406,-0.3263275623321533,-2.1365461349487305
1667255122972462000,1.078462158203125,0.20049428939819336,-0.2043689489364624,-1.9852347373962402
1667255122977420500,1.083420654296875,0.46738195419311523,-0.05014026165008545,-1.7111949920654297
1667255122982379000,1.08837890625,0.8414793014526367,-0.016612529754638672,-1.4949007034301758
1667255122987337500,1.09333740234375,1.258617877960205,-0.11641335487365723,-1.3765711784362793
1667255122992296200,1.098296142578125,1.5868291854858398,-0.28687000274658203,-1.3886690139770508
1667255122997254700,1.103254638671875,1.8356609344482422,-0.37781620025634766,-1.4959540367126465
1667255123002213000,1.108213134765625,2.088010311126709,-0.41662871837615967,-1.5844793319702148
1667255123007171600,1.113171630859375,2.3624091148376465,-0.435233473777771,-1.612473487854004
1667255123012130300,1.11813037109375,2.5558524131774902,-0.4368830919265747,-1.625335693359375
1667255123017088800,1.1230888671875,2.713963031768799,-0.49687647819519043,-1.6245899200439453
1667255123022047200,1.128047119140625,2.733086585998535,-0.5318537950515747,-1.5743255615234375
1667255123027005700,1.133005615234375,2.653733730316162,-0.49329864978790283,-1.552464485168457
1667255123031964400,1.13796435546875,2.493595600128174,-0.405440092086792,-1.5245637893676758
1667255123036923000,1.1429228515625,2.3301663398742676,-0.41347384452819824,-1.4353818893432617
1667255123041881300,1.14788134765625,2.1544594764709473,-0.4101356267929077,-1.3737268447875977
1667255123046839800,1.15283984375,1.890152931213379,-0.3416682481765747,-1.3341827392578125
1667255123051798300,1.15779833984375,1.5875158309936523,-0.2611806392669678,-1.2719383239746094
1667255123056757000,1.162757080078125,1.2978692054748535,-0.21907508373260498,-1.2293596267700195
1667255123061715500,1.167715576171875,1.0003552436828613,-0.22749930620193481,-1.2149524688720703
1667255123066674000,1.172673828125,0.7306747436523438,-0.2200688123703003,-1.2009682655334473
1667255123071632400,1.17763232421875,0.5320329666137695,-0.09953105449676514,-1.1938486099243164
1667255123076591000,1.182591064453125,0.45104026794433594,-0.008481264114379883,-1.2322072982788086
1667255123081549600,1.187549560546875,0.4221491813659668,-0.0018742680549621582,-1.2318191528320312
1667255123086508000,1.192508056640625,0.43095970153808594,-0.07353335618972778,-1.2372856140136719
1667255123091466500,1.197466552734375,0.4358186721801758,-0.15748685598373413,-1.3050403594970703
1667255123096425000,1.202425048828125,0.33765459060668945,-0.2796536684036255,-1.4875125885009766
1667255123101383700,1.2073837890625,0.20215272903442383,-0.4112575650215149,-1.6999139785766602
1667255123106342100,1.212342041015625,0.035776615142822266,-0.5345762372016907,-1.8403615951538086
1667255123111300600,1.217300537109375,-0.18553733825683594,-0.6441218256950378,-1.8644580841064453
1667255123116259000,1.222259033203125,-0.40916013717651367,-0.7457792162895203,-1.8723845481872559
1667255123121217800,1.2272177734375,-0.5124459266662598,-0.7520003914833069,-1.8768973350524902
1667255123126176300,1.23217626953125,-0.5648384094238281,-0.6403090357780457,-1.8360285758972168
1667255123131134700,1.237134765625,-0.5702800750732422,-0.4348457455635071,-1.718475341796875
1667255123136093200,1.24209326171875,-0.4975557327270508,-0.19631409645080566,-1.534350872039795
1667255123141052000,1.247052001953125,-0.4196023941040039,0.04329293966293335,-1.345952033996582
1667255123146010400,1.25201025390625,-0.3443632125854492,0.26902514696121216,-1.1952705383300781
1667255123150968800,1.25696875,-0.42687129974365234,0.4473746120929718,-1.0315289497375488
1667255123155927600,1.261927490234375,-0.5587544441223145,0.5357034802436829,-0.9336748123168945
1667255123160886000,1.266885986328125,-0.6583032608032227,0.5544774532318115,-0.9331574440002441
1667255123165844500,1.271844482421875,-0.6136841773986816,0.6087378263473511,-0.8858013153076172
1667255123170803000,1.276802978515625,-0.5728392601013184,0.673091471195221,-0.7364788055419922
1667255123175761400,1.281761474609375,-0.5147552490234375,0.7682419419288635,-0.5604219436645508
1667255123180720000,1.28672021484375,-0.4067525863647461,0.872867226600647,-0.39437103271484375
1667255123185678600,1.2916787109375,-0.236114501953125,0.9598219990730286,-0.2733306884765625
1667255123190637000,1.296636962890625,0.03075695037841797,0.9629958271980286,-0.1687297821044922
1667255123195595500,1.301595458984375,0.22442054748535156,0.8836767673492432,-0.07526016235351562
1667255123200554200,1.30655419921875,0.34800291061401367,0.7853909730911255,-0.017584800720214844
1667255123205512700,1.3115126953125,0.4047393798828125,0.7208496332168579,-0.006028175354003906
1667255123210471200,1.31647119140625,0.4427499771118164,0.7271378040313721,0.005362510681152344
1667255123215429600,1.3214296875,0.45206165313720703,0.6972424983978271,0.05975532531738281
1667255123220388400,1.326388427734375,0.3859119415283203,0.605027973651886,0.07911968231201172
1667255123225346800,1.331346923828125,0.2650318145751953,0.5308170318603516,0.05933856964111328
1667255123230305300,1.33630517578125,0.09707021713256836,0.5121331214904785,-0.0025920867919921875
1667255123235263700,1.341263671875,-0.028872013092041016,0.5202735066413879,-0.031790733337402344
1667255123240222200,1.34622216796875,-0.07814168930053711,0.5082783699035645,-0.016594886779785156
1667255123245181000,1.351180908203125,-0.03346109390258789,0.5056895017623901,0.010815620422363281
1667255123250139400,1.356139404296875,0.08623647689819336,0.4491334855556488,-0.002864837646484375
1667255123255097900,1.361097900390625,0.11861085891723633,0.29481080174446106,-0.06702995300292969
1667255123260056300,1.366056396484375,0.050220489501953125,0.12098518013954163,-0.21513748168945312
1667255123265015000,1.37101513671875,0.0054912567138671875,-0.012209892272949219,-0.43616294860839844
1667255123269973500,1.375973388671875,0.062062740325927734,-0.13668882846832275,-0.5551614761352539
1667255123274932000,1.380931884765625,0.18219947814941406,-0.3667783737182617,-0.2884683609008789
1667255123279890400,1.385890380859375,-0.25818347930908203,-0.4210377037525177,-0.21379470825195312
1667255123284849200,1.39084912109375,-0.513007640838623,-0.3478638529777527,-0.248931884765625
1667255123289807600,1.3958076171875,-0.6875858306884766,-0.17387354373931885,-0.25359630584716797
1667255123294766000,1.40076611328125,-0.7652406692504883,0.07793855667114258,-0.25018787384033203
1667255123299724500,1.405724609375,-0.8454093933105469,0.3093264400959015,-0.25079917907714844
1667255123304683300,1.410683349609375,-0.8823604583740234,0.5197383165359497,-0.3542146682739258
1667255123309641700,1.415641845703125,-0.737421989440918,0.7741217613220215,-0.4496040344238281
1667255123314600200,1.42060009765625,-0.5035138130187988,0.9691197276115417,-0.44140625
1667255123319558700,1.42555859375,-0.18656253814697266,1.2034307718276978,-0.42848777770996094
1667255123324517400,1.430517333984375,0.13019514083862305,1.3672711849212646,-0.32581043243408203
1667255123329475800,1.435475830078125,0.3525509834289551,1.4422075748443604,-0.23500728607177734
1667255123334434300,1.440434326171875,0.493196964263916,1.4721286296844482,-0.20159912109375
1667255123339392800,1.445392822265625,0.5971360206604004,1.4616670608520508,-0.21500396728515625
1667255123344351500,1.4503515625,0.6317987442016602,1.38688063621521,-0.187225341796875
1667255123349310000,1.45531005859375,0.671534538269043,1.1439180374145508,-0.16857242584228516
1667255123354268400,1.460268310546875,0.6496105194091797,0.8065232038497925,-0.19766616821289062
1667255123359227000,1.465226806640625,0.6487865447998047,0.42634445428848267,-0.27427005767822266
1667255123364185600,1.470185546875,0.7120633125305176,0.1325312852859497,-0.40760135650634766
1667255123369144000,1.47514404296875,0.7262883186340332,-0.10438479483127594,-0.6220121383666992
1667255123374102500,1.4801025390625,0.5970935821533203,-0.3018476366996765,-0.775855541229248
1667255123379061000,1.48506103515625,0.36932849884033203,-0.44908636808395386,-0.8630518913269043
1667255123384019700,1.490019775390625,0.16974592208862305,-0.6010921597480774,-0.9107799530029297
1667255123388978200,1.494978271484375,0.008800983428955078,-0.6686824560165405,-0.9631795883178711
1667255123393936600,1.4999365234375,0.027484893798828125,-0.6261837482452393,-1.0476665496826172
1667255123398895000,1.50489501953125,0.13955259323120117,-0.5622662305831909,-1.1122665405273438
1667255123403853800,1.509853759765625,0.05675363540649414,-0.4343208074569702,-1.0667972564697266
1667255123408812300,1.514812255859375,-0.05372762680053711,-0.3702697157859802,-0.7988033294677734
1667255123413770800,1.519770751953125,0.016285419464111328,-0.3633017838001251,-0.32605838775634766
1667255123418729200,1.524729248046875,0.18898582458496094,-0.225857213139534,-0.06441783905029297
1667255123423688000,1.52968798828125,0.3243980407714844,-0.0019378066062927246,-0.11044502258300781
1667255123428646400,1.534646484375,0.4644279479980469,0.18025049567222595,-0.20507240295410156
1667255123433604900,1.53960498046875,0.5442929267883301,0.31708502769470215,-0.22164630889892578
1667255123438563300,1.544563232421875,0.5772705078125,0.39888477325439453,-0.1502685546875
1667255123443522000,1.54952197265625,0.5351438522338867,0.40781712532043457,-0.1701364517211914
1667255123448480500,1.55448046875,0.46671581268310547,0.340523362159729,-0.23650360107421875
1667255123453439000,1.55943896484375,0.48867082595825195,0.2044915407896042,-0.3410968780517578
1667255123458397400,1.5643974609375,0.5444989204406738,0.07896706461906433,-0.5091590881347656
1667255123463356000,1.56935595703125,0.5802779197692871,-0.03680521249771118,-0.6210231781005859
1667255123468314600,1.574314697265625,0.5028104782104492,-0.1338963657617569,-0.7064361572265625
1667255123473273000,1.579273193359375,0.5469603538513184,-0.19518741965293884,-0.8110456466674805
1667255123478231600,1.5842314453125,0.6142802238464355,-0.24184605479240417,-0.9596538543701172
1667255123483190000,1.58918994140625,0.6089978218078613,-0.20990973711013794,-1.0023307800292969
1667255123488148700,1.594148681640625,0.5053443908691406,-0.20245276391506195,-1.0320453643798828
1667255123493107200,1.599107177734375,0.3589611053466797,-0.2876254916191101,-1.0533561706542969
1667255123498065700,1.604065673828125,0.21645355224609375,-0.3239883780479431,-1.0479326248168945
1667255123503024000,1.609024169921875,0.16185712814331055,-0.26989445090293884,-1.0199174880981445
1667255123507982800,1.61398291015625,0.09668922424316406,-0.19043904542922974,-1.014134407043457
1667255123512941300,1.61894140625,-0.017987728118896484,-0.16734516620635986,-1.0160017013549805
1667255123517899800,1.623899658203125,-0.15864229202270508,-0.22523126006126404,-0.9884357452392578
1667255123522858200,1.628858154296875,-0.323702335357666,-0.28644734621047974,-0.9019317626953125
1667255123527817000,1.63381689453125,-0.46764469146728516,-0.27476128935813904,-0.7709407806396484
1667255123532775400,1.638775390625,-0.5662698745727539,-0.20377850532531738,-0.6505212783813477
1667255123537734000,1.64373388671875,-0.39478468894958496,-0.14724381268024445,-0.6637992858886719
1667255123542692400,1.6486923828125,0.10013341903686523,-0.049153998494148254,-0.7110223770141602
1667255123547651000,1.653651123046875,0.49132299423217773,0.026088815182447433,-0.7089471817016602
1667255123552609500,1.658609619140625,0.6801071166992188,0.0075052641332149506,-0.7238492965698242
1667255123557568000,1.663568115234375,0.8085284233093262,-0.07889234274625778,-0.7410011291503906
1667255123562526500,1.6685263671875,0.838101863861084,-0.09133294224739075,-0.7528915405273438
1667255123567485200,1.673485107421875,0.8561844825744629,-0.02447005733847618,-0.7493381500244141
1667255123572443600,1.678443603515625,0.8589200973510742,0.08242189884185791,-0.6747188568115234
1667255123577402000,1.683402099609375,0.8312058448791504,0.13512103259563446,-0.6117238998413086
1667255123582360800,1.68836083984375,0.8540081977844238,0.17198243737220764,-0.5971860885620117
1667255123587319300,1.6933193359375,0.9285411834716797,0.2862883508205414,-0.5415620803833008
1667255123592277800,1.69827783203125,0.9691400527954102,0.37527427077293396,-0.4475059509277344
1667255123597236200,1.703236328125,1.0056962966918945,0.4880342483520508,-0.34014320373535156
1667255123602195000,1.70819482421875,1.0798978805541992,0.5586592555046082,-0.2265949249267578
1667255123607153400,1.7131533203125,1.1463465690612793,0.6136878728866577,-0.10328102111816406
1667255123612112000,1.71811181640625,1.188521385192871,0.6260069608688354,-0.06091499328613281
1667255123617070300,1.7230703125,1.2534844875335693,0.5923758745193481,-0.12447166442871094
1667255123622029000,1.728029052734375,1.332331895828247,0.55351322889328,-0.12446880340576172
1667255123626987500,1.732987548828125,1.4656174182891846,0.5174451470375061,-0.11468982696533203
1667255123631946000,1.737946044921875,1.698021650314331,0.41340577602386475,-0.159271240234375
1667255123636904400,1.742904541015625,1.9785912036895752,0.2426488846540451,-0.23505783081054688
1667255123641863200,1.74786328125,2.276715040206909,0.04108288884162903,-0.2747945785522461
1667255123646821600,1.752821533203125,2.5709540843963623,-0.17462745308876038,-0.32578372955322266
1667255123651780000,1.757780029296875,2.9520866870880127,-0.3816373348236084,-0.4371604919433594
1667255123656738600,1.762738525390625,3.340015172958374,-0.5189681649208069,-0.6102781295776367
1667255123661697300,1.767697265625,3.5814967155456543,-0.6110900640487671,-0.7298612594604492
1667255123666655700,1.77265576171875,3.60492205619812,-0.6859282851219177,-0.825831413269043
1667255123671614200,1.7776142578125,3.4375715255737305,-0.736755907535553,-0.933110237121582
1667255123676572700,1.78257275390625,3.1758511066436768,-0.7810384631156921,-1.0065650939941406
1667255123681531400,1.787531494140625,2.8668906688690186,-0.7710894346237183,-1.0309505462646484
1667255123686489900,1.79248974609375,2.4464774131774902,-0.7335202693939209,-0.9627342224121094
1667255123691448300,1.7974482421875,1.8185999393463135,-0.6212925910949707,-0.8802423477172852
1667255123696406800,1.80240673828125,1.1198067665100098,-0.43644580245018005,-0.8590383529663086
1667255123701365500,1.807365478515625,0.5100662708282471,-0.23220381140708923,-0.8384151458740234
1667255123706324000,1.812323974609375,0.06933116912841797,-0.055364012718200684,-0.8410615921020508
1667255123711282400,1.817282470703125,-0.12436509132385254,0.02523219585418701,-0.8882675170898438
1667255123716241000,1.822240966796875,-0.12708663940429688,0.050966888666152954,-1.0191020965576172
1667255123721199600,1.82719970703125,0.044666290283203125,0.017535775899887085,-1.110276222229004
1667255123726158000,1.832157958984375,0.35840821266174316,-0.030554533004760742,-1.1747140884399414
1667255123731116500,1.837116455078125,0.8623828887939453,-0.1146586537361145,-1.189387321472168
1667255123736075000,1.842074951171875,1.4354956150054932,-0.20223431289196014,-1.132634162902832
1667255123741033700,1.84703369140625,1.9926793575286865,-0.2729282081127167,-1.0067081451416016
1667255123745992200,1.8519921875,2.377987861633301,-0.33621400594711304,-0.8987407684326172
1667255123750950700,1.85695068359375,2.5604169368743896,-0.37426212430000305,-0.8002843856811523
1667255123755909000,1.8619091796875,2.525179862976074,-0.37284988164901733,-0.6326808929443359
1667255123760867800,1.866867919921875,2.2439169883728027,-0.2846323251724243,-0.4286060333251953
1667255123765826300,1.871826416015625,1.6680245399475098,-0.06230783462524414,-0.2218170166015625
1667255123770784800,1.87678466796875,0.8476126194000244,0.22803494334220886,-0.08881950378417969
1667255123775743500,1.881743408203125,-0.08747148513793945,0.5123734474182129,0.012233734130859375
1667255123780702000,1.886701904296875,-0.9179414510726929,0.7418298125267029,0.09557342529296875
1667255123785660400,1.891660400390625,-1.5622632503509521,0.8893123865127563,0.19089317321777344
1667255123790619000,1.896618896484375,-1.9481430053710938,1.000497817993164,0.21343135833740234
1667255123795577600,1.90157763671875,-2.1149659156799316,1.0432558059692383,0.24106121063232422
1667255123800536000,1.9065361328125,-2.102646827697754,1.0557262897491455,0.25973033905029297
1667255123805494500,1.91149462890625,-1.9307165145874023,0.9817727208137512,0.2470560073852539
1667255123810453000,1.916452880859375,-1.71476411819458,0.8622490763664246,0.2080059051513672
1667255123815411700,1.92141162109375,-1.5329878330230713,0.6486693620681763,0.11767292022705078
1667255123820370200,1.9263701171875,-1.3959088325500488,0.4189852476119995,0.017900466918945312
1667255123825328600,1.93132861328125,-1.3532220125198364,0.2555641531944275,-0.07823562622070312
1667255123830287000,1.936287109375,-1.3065851926803589,0.1295343041419983,-0.18392372131347656
1667255123835245800,1.941245849609375,-1.2004632949829102,0.055048078298568726,-0.23722362518310547
1667255123840204300,1.946204345703125,-1.0402493476867676,0.03768983483314514,-0.3326864242553711
1667255123845162800,1.951162841796875,-0.7735791206359863,0.01848316192626953,-0.3878288269042969
1667255123850121200,1.956121337890625,-0.4118506908416748,0.030473679304122925,-0.4766111373901367
1667255123855080000,1.961079833984375,-0.10148262977600098,0.007449477910995483,-0.4737386703491211
1667255123860038400,1.966038330078125,0.05409693717956543,0.006240874528884888,-0.41436195373535156
1667255123864996900,1.970996826171875,0.10595178604125977,0.05374613404273987,-0.3157310485839844
1667255123869955300,1.975955322265625,0.08691525459289551,0.10749652981758118,-0.2188854217529297
1667255123874914000,1.9809140625,-0.008984804153442383,0.16133925318717957,-0.16825008392333984
1667255123879872500,1.98587255859375,-0.07613539695739746,0.16985934972763062,-0.17695999145507812
1667255123884831000,1.9908310546875,-0.1096336841583252,0.1499888002872467,-0.2473306655883789
1667255123889789400,1.99578955078125,-0.16906189918518066,0.049779534339904785,-0.33513545989990234
1667255123894748200,2.000748046875,-0.22066664695739746,-0.07139292359352112,-0.38912296295166016
1667255123899706600,2.00570654296875,-0.25875020027160645,-0.13424357771873474,-0.4236621856689453
1667255123904665000,2.0106650390625,-0.27084779739379883,-0.1876462697982788,-0.4052276611328125
1667255123909623600,2.01562353515625,-0.2256302833557129,-0.20051860809326172,-0.3516359329223633
1667255123914582300,2.020582275390625,-0.20647525787353516,-0.23129785060882568,-0.30690765380859375
1667255123919540700,2.025540771484375,-0.22496533393859863,-0.27969828248023987,-0.2982492446899414
1667255123924499200,2.030499267578125,-0.26380348205566406,-0.3178754150867462,-0.3194456100463867
1667255123929457700,2.035457763671875,-0.23317956924438477,-0.40027856826782227,-0.37736988067626953
1667255123934416400,2.04041650390625,-0.1379413604736328,-0.45003437995910645,-0.43468189239501953
1667255123939374800,2.045374755859375,-0.022974729537963867,-0.47902795672416687,-0.5258569717407227
1667255123944333300,2.050333251953125,0.07169032096862793,-0.47296977043151855,-0.5480213165283203
1667255123949292000,2.0552919921875,0.17076945304870605,-0.4047565460205078,-0.5680608749389648
1667255123954250500,2.06025048828125,0.23133277893066406,-0.2916983664035797,-0.47376441955566406
1667255123959209000,2.065208984375,0.2345294952392578,-0.13225924968719482,-0.3155250549316406
1667255123964167400,2.07016748046875,0.2442154884338379,-0.008324682712554932,-0.16518020629882812
1667255123969126100,2.075126220703125,0.2277376651763916,0.08424001932144165,-0.016895294189453125
1667255123974084600,2.080084716796875,0.1971731185913086,0.14995235204696655,0.10277080535888672
1667255123979043000,2.08504296875,0.16451168060302734,0.1789436936378479,0.17449188232421875
1667255123984001500,2.09000146484375,0.16855072975158691,0.18087854981422424,0.1695709228515625
1667255123988960300,2.094960205078125,0.21528267860412598,0.12509045004844666,0.11678695678710938
1667255123993918700,2.099918701171875,0.23425674438476562,0.03253960609436035,-0.00647735595703125
1667255123998877200,2.104877197265625,0.24440431594848633,-0.0817861258983612,-0.17615699768066406
1667255124003836000,2.1098359375,0.23878097534179688,-0.16611558198928833,-0.33731555938720703
1667255124008794400,2.11479443359375,0.1964244842529297,-0.27146440744400024,-0.4507427215576172
1667255124013752800,2.1197529296875,0.14552974700927734,-0.34841275215148926,-0.4928884506225586
1667255124018711300,2.124711181640625,0.16963863372802734,-0.4161514639854431,-0.5140514373779297
1667255124023670000,2.129669921875,0.24927878379821777,-0.4378338158130646,-0.5010900497436523
1667255124028628500,2.13462841796875,0.36861443519592285,-0.4279387593269348,-0.42180347442626953
1667255124033587000,2.1395869140625,0.502403736114502,-0.37006479501724243,-0.3157014846801758
1667255124038545400,2.14454541015625,0.6363859176635742,-0.3039323389530182,-0.1780862808227539
1667255124043504000,2.149504150390625,0.7943053245544434,-0.20851004123687744,-0.0364227294921875
1667255124048462600,2.154462646484375,0.9817745685577393,-0.09271970391273499,0.0831289291381836
1667255124053421000,2.159421142578125,1.18839430809021,-0.019211769104003906,0.19878196716308594
1667255124058379800,2.1643798828125,1.3407025337219238,0.039110779762268066,0.296417236328125
1667255124063338200,2.169338134765625,1.3717873096466064,0.09775125980377197,0.3630094528198242
1667255124068296700,2.174296630859375,1.2878563404083252,0.13902407884597778,0.38191699981689453
1667255124073255200,2.179255126953125,1.1249058246612549,0.18229258060455322,0.33774566650390625
1667255124078214000,2.1842138671875,0.8974764347076416,0.2205965518951416,0.29149436950683594
1667255124083172400,2.18917236328125,0.6429078578948975,0.19800180196762085,0.27295684814453125
1667255124088130800,2.194130859375,0.36521410942077637,0.20554053783416748,0.22227001190185547
1667255124093089300,2.19908935546875,0.0983583927154541,0.19931703805923462,0.15964221954345703
1667255124098048000,2.204048095703125,-0.16451454162597656,0.17250126600265503,0.06230449676513672
1667255124103006500,2.20900634765625,-0.3195316791534424,0.11595970392227173,0.0031232833862304688
1667255124107965000,2.21396484375,-0.36107325553894043,0.028816282749176025,-0.0430450439453125
1667255124112923400,2.21892333984375,-0.27765321731567383,-0.08041632175445557,-0.10124778747558594
1667255124117882000,2.223882080078125,-0.1295156478881836,-0.14850473403930664,-0.1785421371459961
1667255124122840600,2.228840576171875,0.030329465866088867,-0.17689889669418335,-0.20433807373046875
1667255124127799000,2.233799072265625,0.16435909271240234,-0.16578441858291626,-0.2168102264404297
1667255124132757500,2.238757568359375,0.2768707275390625,-0.10212957859039307,-0.22777462005615234
1667255124137716200,2.24371630859375,0.323261022567749,-0.05993300676345825,-0.28486156463623047
1667255124142674700,2.2486748046875,0.28757691383361816,-0.04474139213562012,-0.3532228469848633
1667255124147633200,2.253633056640625,0.23864960670471191,-0.07266467809677124,-0.4446563720703125
1667255124152592000,2.258591796875,0.18224573135375977,-0.18856841325759888,-0.5352087020874023
1667255124157550300,2.26355029296875,0.0445101261138916,-0.3023490905761719,-0.6154117584228516
1667255124162508800,2.2685087890625,-0.10965371131896973,-0.33035457134246826,-0.6865596771240234
1667255124167467300,2.27346728515625,-0.288144588470459,-0.271598756313324,-0.7344675064086914
1667255124172426000,2.278426025390625,-0.5107288360595703,-0.12645971775054932,-0.7306451797485352
1667255124177384400,2.283384521484375,-0.730309247970581,0.08658325672149658,-0.6896200180053711
1667255124182343000,2.288343017578125,-0.9034247398376465,0.29636579751968384,-0.6067829132080078
1667255124187301600,2.293301513671875,-1.0280494689941406,0.4449787139892578,-0.48243236541748047
1667255124192260000,2.298260009765625,-1.050992727279663,0.5225558876991272,-0.3180398941040039
1667255124197218600,2.303218505859375,-0.9230027198791504,0.4989662766456604,-0.19856834411621094
1667255124202177000,2.308177001953125,-0.6314094066619873,0.43873798847198486,-0.11670589447021484
1667255124207135700,2.3131357421875,-0.21187806129455566,0.2976909875869751,-0.1115570068359375
1667255124212094200,2.31809423828125,0.29505300521850586,0.14159470796585083,-0.1337432861328125
1667255124217052700,2.323052734375,0.7668149471282959,-0.06159675121307373,-0.1770648956298828
1667255124222011400,2.328011474609375,1.0351812839508057,-0.23024636507034302,-0.22002887725830078
1667255124226969900,2.332969970703125,1.1045565605163574,-0.34983915090560913,-0.22457218170166016
1667255124231928300,2.33792822265625,1.030914545059204,-0.4417867660522461,-0.17546463012695312
1667255124236886800,2.34288671875,0.8176400661468506,-0.43209004402160645,-0.13034629821777344
1667255124241845500,2.347845458984375,0.5514967441558838,-0.3948739171028137,-0.07147598266601562
1667255124246804000,2.352803955078125,0.3211829662322998,-0.393288791179657,0.0069904327392578125
1667255124251762400,2.357762451171875,0.15161561965942383,-0.3889197111129761,0.07636356353759766
1667255124256721000,2.362720947265625,0.018548250198364258,-0.32554978132247925,0.09970569610595703
1667255124261679600,2.3676796875,-0.04903268814086914,-0.24142229557037354,0.14420700073242188
1667255124266638000,2.37263818359375,-0.029758453369140625,-0.14376306533813477,0.16720867156982422
1667255124271596500,2.377596435546875,-0.007050991058349609,-0.09448719024658203,0.14273357391357422
1667255124276555000,2.382554931640625,-0.020453453063964844,-0.07527148723602295,0.15088558197021484
1667255124281513700,2.387513671875,-0.09469747543334961,-0.08006101846694946,0.19748306274414062
1667255124286472200,2.39247216796875,-0.14796900749206543,-0.051670074462890625,0.2667875289916992
1667255124291430700,2.3974306640625,-0.17001128196716309,-0.023983538150787354,0.3979616165161133
1667255124296389400,2.402389404296875,-0.19690656661987305,-0.0010296106338500977,0.5058450698852539
1667255124301347800,2.407347900390625,-0.16597294807434082,0.016654491424560547,0.6034889221191406
1667255124306306300,2.412306396484375,-0.023305654525756836,0.0048274993896484375,0.6598167419433594
1667255124311264800,2.4172646484375,0.11913490295410156,-0.03285384178161621,0.7121715545654297
1667255124316223500,2.422223388671875,0.2787797451019287,-0.14005917310714722,0.7256746292114258
1667255124321182000,2.427181884765625,0.3855254650115967,-0.22600233554840088,0.7291097640991211
1667255124326140400,2.432140380859375,0.42432641983032227,-0.23985248804092407,0.7641086578369141
1667255124331099100,2.43709912109375,0.38469886779785156,-0.1595536470413208,0.7628870010375977
1667255124336057600,2.4420576171875,0.28809094429016113,-0.06892514228820801,0.7674560546875
1667255124341016000,2.44701611328125,0.11295557022094727,0.045238614082336426,0.7672739028930664
1667255124345974800,2.451974853515625,-0.14056944847106934,0.1522998809814453,0.7399568557739258
1667255124350933200,2.456933349609375,-0.46903371810913086,0.21707522869110107,0.7258987426757812
1667255124355891700,2.4618916015625,-0.7968137264251709,0.24257850646972656,0.7213230133056641
1667255124360850200,2.46685009765625,-1.0336480140686035,0.24702227115631104,0.7605133056640625
1667255124365809000,2.471808837890625,-1.144634485244751,0.24237418174743652,0.7719106674194336
1667255124370767400,2.476767333984375,-1.148848295211792,0.26427149772644043,0.7854824066162109
1667255124375725800,2.481725830078125,-1.050136923789978,0.27805304527282715,0.7610540390014648
1667255124380684300,2.486684326171875,-0.8205564022064209,0.28621768951416016,0.6813955307006836
1667255124385643000,2.49164306640625,-0.568641185760498,0.28349602222442627,0.6127452850341797
1667255124390601500,2.4966015625,-0.2945556640625,0.2858583927154541,0.6082096099853516
1667255124395560000,2.501559814453125,-0.01575446128845215,0.2903919219970703,0.6368894577026367
1667255124400518700,2.5065185546875,0.2349224090576172,0.24636602401733398,0.6679258346557617
1667255124405477000,2.51147705078125,0.4356818199157715,0.17986631393432617,0.6417617797851562
1667255124410435600,2.516435546875,0.527071475982666,0.07532906532287598,0.5358028411865234
1667255124415394000,2.52139404296875,0.5359199047088623,-0.015513300895690918,0.3524637222290039
1667255124420352800,2.526352783203125,0.4395616054534912,-0.0864419937133789,0.1679821014404297
1667255124425311200,2.531311279296875,0.2875230312347412,-0.13233649730682373,0.0057239532470703125
1667255124430269700,2.536269775390625,0.11769866943359375,-0.14990556240081787,-0.1398906707763672
1667255124435228400,2.541228515625,0.03977537155151367,-0.09406447410583496,-0.2253437042236328
1667255124440187000,2.546186767578125,0.04642844200134277,-0.0664219856262207,-0.30350494384765625
1667255124445145300,2.551145263671875,0.06848812103271484,-0.008589506149291992,-0.3923511505126953
1667255124450103800,2.556103759765625,0.11427044868469238,0.06852579116821289,-0.5143966674804688
1667255124455062500,2.5610625,0.15279793739318848,0.14700162410736084,-0.607701301574707
1667255124460021000,2.56602099609375,0.18645954132080078,0.19839751720428467,-0.6689453125
1667255124464979500,2.5709794921875,0.22760415077209473,0.19447684288024902,-0.7340211868286133
1667255124469938200,2.575938232421875,0.24192237854003906,0.14608979225158691,-0.802302360534668
1667255124474896600,2.580896728515625,0.23312687873840332,0.12041366100311279,-0.8189077377319336
1667255124479855000,2.585855224609375,0.25963687896728516,0.11020612716674805,-0.8041849136352539
1667255124484813600,2.5908134765625,0.3113377094268799,0.11065983772277832,-0.737727165222168
1667255124489772300,2.595772216796875,0.3526790142059326,0.1550917625427246,-0.7017230987548828
1667255124494730800,2.600730712890625,0.36027979850769043,0.20885682106018066,-0.6791763305664062
1667255124499689200,2.605689208984375,0.3359639644622803,0.2326369285583496,-0.6925640106201172
1667255124504648000,2.61064794921875,0.3414185047149658,0.23753094673156738,-0.7464876174926758
1667255124509606400,2.6156064453125,0.3309497833251953,0.1893308162689209,-0.8050317764282227
1667255124514564900,2.62056494140625,0.3219168186187744,0.10872983932495117,-0.8405885696411133
1667255124519523600,2.625523681640625,0.36773109436035156,-0.011281728744506836,-0.8483476638793945
1667255124524482000,2.63048193359375,0.4477083683013916,-0.18006205558776855,-0.9083118438720703
1667255124529440500,2.6354404296875,0.5122175216674805,-0.3354780673980713,-1.0309391021728516
1667255124534399000,2.64039892578125,0.5620722770690918,-0.49397122859954834,-1.1575307846069336
1667255124539357700,2.645357666015625,0.5638701915740967,-0.615933895111084,-1.236769676208496
1667255124544316200,2.650316162109375,0.5120422840118408,-0.6511731147766113,-1.321406364440918
1667255124549274600,2.655274658203125,0.43619275093078613,-0.6321596503257751,-1.3615283966064453
1667255124554233300,2.6602333984375,0.2860853672027588,-0.5591275691986084,-1.3181238174438477
1667255124559191800,2.66519189453125,0.10110759735107422,-0.4204552173614502,-1.2823925018310547
1667255124564150300,2.670150390625,-0.0593409538269043,-0.2500671148300171,-1.2222776412963867
1667255124569108700,2.675108642578125,-0.16389203071594238,-0.07214105129241943,-1.1570062637329102
1667255124574067500,2.6800673828125,-0.21844983100891113,0.1357738971710205,-1.0866003036499023
1667255124579026000,2.68502587890625,-0.25050830841064453,0.2610515356063843,-1.0086498260498047
1667255124583984400,2.689984375,-0.22548651695251465,0.2812204360961914,-0.9064531326293945
1667255124588943000,2.694943115234375,-0.09739398956298828,0.24895429611206055,-0.8443737030029297
1667255124593901600,2.699901611328125,0.09196782112121582,0.1796705722808838,-0.7969074249267578
1667255124598860000,2.704860107421875,0.29843902587890625,0.1044238805770874,-0.7624959945678711
1667255124603818500,2.709818603515625,0.4713568687438965,0.03620326519012451,-0.6645107269287109
1667255124608777200,2.714777099609375,0.5876729488372803,-0.009650230407714844,-0.5554590225219727
1667255124613735700,2.719735595703125,0.6553802490234375,-0.052375197410583496,-0.49849605560302734
1667255124618694100,2.724694091796875,0.6734542846679688,-0.1384108066558838,-0.4565591812133789
1667255124623652900,2.72965283203125,0.5898654460906982,-0.20889222621917725,-0.4071054458618164
1667255124628611300,2.734611328125,0.49245619773864746,-0.2387474775314331,-0.36940956115722656
1667255124633569800,2.73956982421875,0.38990116119384766,-0.23298728466033936,-0.26349735260009766
1667255124638528500,2.744528564453125,0.31937646865844727,-0.17170846462249756,-0.09186744689941406
1667255124643487000,2.749487060546875,0.2426316738128662,-0.08042514324188232,0.10719776153564453
1667255124648445400,2.754445556640625,0.14672136306762695,-0.021317124366760254,0.2559680938720703
1667255124653404200,2.759404052734375,0.04397988319396973,-0.00036728382110595703,0.38549041748046875
1667255124658362600,2.764362548828125,-0.024689197540283203,-0.025958657264709473,0.47900390625
1667255124663321000,2.769321044921875,-0.06513595581054688,-0.05630016326904297,0.5592288970947266
1667255124668279600,2.774279541015625,-0.0332646369934082,-0.090218186378479,0.5987386703491211
1667255124673238300,2.77923828125,0.052735090255737305,-0.0927896499633789,0.5593891143798828
1667255124678196700,2.78419677734375,0.13518571853637695,-0.05184125900268555,0.4568767547607422
1667255124683155200,2.7891552734375,0.20315861701965332,0.009037256240844727,0.3390817642211914
1667255124688114000,2.794114013671875,0.2468400001525879,0.12814903259277344,0.21445751190185547
1667255124693072400,2.799072265625,0.22520017623901367,0.2373182773590088,0.13212966918945312
1667255124698030800,2.80403076171875,0.1737072467803955,0.3543022871017456,0.07070064544677734
1667255124702989600,2.808989501953125,0.06937599182128906,0.38711655139923096,0.020689964294433594
1667255124707948000,2.813947998046875,-0.0804145336151123,0.3623136281967163,-0.004837989807128906
1667255124712906500,2.818906494140625,-0.23586797714233398,0.3042144775390625,-0.02996826171875
1667255124717865000,2.823864990234375,-0.3583216667175293,0.28719639778137207,-0.09310245513916016
1667255124722823700,2.82882373046875,-0.36752963066101074,0.3169717788696289,-0.15720558166503906
1667255124727782100,2.8337822265625,-0.2411942481994629,0.34577083587646484,-0.23417091369628906
1667255124732740600,2.83874072265625,-0.06919145584106445,0.35909342765808105,-0.30601024627685547
1667255124737699300,2.84369921875,0.02310633659362793,0.32707810401916504,-0.37395191192626953
1667255124742657800,2.84865771484375,0.07659077644348145,0.2628384828567505,-0.4643077850341797
1667255124747616300,2.8536162109375,0.10722637176513672,0.1926255226135254,-0.5651969909667969
1667255124752575000,2.858574951171875,0.07599616050720215,0.0783834457397461,-0.7197370529174805
1667255124757533400,2.863533447265625,0.0011310577392578125,-0.06288015842437744,-0.8789825439453125
1667255124762492000,2.868491943359375,-0.07666826248168945,-0.2173687219619751,-1.0442419052124023
1667255124767450600,2.87345068359375,-0.1236870288848877,-0.4228806495666504,-1.1762609481811523
1667255124772409000,2.8784091796875,-0.14451265335083008,-0.6192574501037598,-1.2764434814453125
1667255124777367600,2.883367431640625,-0.15345478057861328,-0.794380247592926,-1.334157943725586
1667255124782326000,2.888325927734375,-0.10402441024780273,-0.9173235893249512,-1.3757171630859375
1667255124787284700,2.89328466796875,0.0022804737091064453,-0.9669013023376465,-1.3616266250610352
1667255124792243200,2.8982431640625,0.12951350212097168,-0.8908478021621704,-1.321803092956543
1667255124797201700,2.90320166015625,0.2440929412841797,-0.7803889513015747,-1.247849464416504
1667255124802160400,2.908160400390625,0.33066534996032715,-0.6119146347045898,-1.1553564071655273
1667255124807118800,2.913118896484375,0.3761274814605713,-0.43007588386535645,-1.044281005859375
1667255124812077300,2.918077392578125,0.40322422981262207,-0.2947908639907837,-0.930140495300293
1667255124817036000,2.9230361328125,0.41917848587036133,-0.17161262035369873,-0.7818403244018555
1667255124821994500,2.927994384765625,0.40024638175964355,-0.10025489330291748,-0.6089706420898438
1667255124826953000,2.932952880859375,0.3668205738067627,-0.04750347137451172,-0.4485483169555664
1667255124831911400,2.937911376953125,0.33217906951904297,-0.030231833457946777,-0.33280372619628906
1667255124836870100,2.9428701171875,0.27487635612487793,-0.0007183551788330078,-0.26165199279785156
1667255124841828600,2.94782861328125,0.20096707344055176,0.011246204376220703,-0.21832942962646484
1667255124846787000,2.952787109375,0.11046743392944336,0.021463632583618164,-0.18849468231201172
1667255124851745800,2.957745849609375,0.01880168914794922,0.013460159301757812,-0.1828775405883789
1667255124856704300,2.962704345703125,-0.06595563888549805,-0.03884470462799072,-0.1798715591430664
1667255124861662700,2.967662841796875,-0.09113407135009766,-0.0950855016708374,-0.19121170043945312
1667255124866621400,2.972621337890625,-0.08758091926574707,-0.14922749996185303,-0.2500009536743164
1667255124871580000,2.977579833984375,-0.08770465850830078,-0.1903001070022583,-0.3036527633666992
1667255124876538400,2.982538330078125,-0.08674788475036621,-0.19325757026672363,-0.31903553009033203
1667255124881496800,2.987496826171875,-0.10643339157104492,-0.16560065746307373,-0.2963380813598633
1667255124886455600,2.99245556640625,-0.13970327377319336,-0.1304161548614502,-0.2132120132446289
1667255124891414000,2.9974140625,-0.19944977760314941,-0.11767089366912842,-0.09623050689697266
1667255124896372700,3.002372802734375,-0.2628023624420166,-0.11412787437438965,0.07445621490478516
1667255124901331200,3.007331298828125,-0.26231884956359863,-0.14253473281860352,0.21428585052490234
1667255124906289700,3.01228955078125,-0.12336158752441406,-0.1435338258743286,0.3463296890258789
1667255124911248400,3.017248291015625,0.03606677055358887,-0.10572350025177002,0.42815399169921875
1667255124916206800,3.022206787109375,0.20072317123413086,-0.09228360652923584,0.45567798614501953
1667255124921165300,3.027165283203125,0.371417760848999,-0.12518393993377686,0.46260547637939453
1667255124926123800,3.032123779296875,0.43323659896850586,-0.16730546951293945,0.4490499496459961
1667255124931082500,3.03708251953125,0.45749330520629883,-0.1830815076828003,0.47203731536865234
1667255124936041000,3.042041015625,0.45911598205566406,-0.17647528648376465,0.47897911071777344
1667255124940999400,3.04699951171875,0.46709275245666504,-0.12765049934387207,0.4675760269165039
1667255124945958100,3.051958251953125,0.4993710517883301,-0.06582498550415039,0.4664726257324219
1667255124950916600,3.05691650390625,0.5023958683013916,-0.0021207332611083984,0.46614933013916016
1667255124955875000,3.061875,0.435230016708374,0.028917670249938965,0.4510984420776367
1667255124960833800,3.066833740234375,0.24950623512268066,0.0074803829193115234,0.4318361282348633
1667255124965792300,3.071792236328125,0.037389278411865234,-0.06828093528747559,0.4009418487548828
1667255124970750700,3.076750732421875,-0.15148091316223145,-0.12055444717407227,0.3368549346923828
1667255124975709200,3.081709228515625,-0.3011775016784668,-0.16008591651916504,0.27637577056884766
1667255124980668000,3.08666796875,-0.42803001403808594,-0.17278289794921875,0.20503807067871094
1667255124985626400,3.09162646484375,-0.48087263107299805,-0.20046758651733398,0.14181137084960938
1667255124990585000,3.096585205078125,-0.49971914291381836,-0.20744097232818604,0.06653690338134766
1667255124995543600,3.10154345703125,-0.4532482624053955,-0.23525333404541016,-0.003962516784667969
1667255125000502000,3.106501953125,-0.4138345718383789,-0.33528828620910645,-0.10404682159423828
1667255125005460500,3.11146044921875,-0.3215346336364746,-0.4730379581451416,-0.2950897216796875
1667255125010419200,3.116419189453125,-0.22342181205749512,-0.628446102142334,-0.45415592193603516
1667255125015377700,3.121377685546875,-0.18427157402038574,-0.748733639717102,-0.5695199966430664
1667255125020336000,3.126336181640625,-0.12108159065246582,-0.7982967495918274,-0.6319351196289062
1667255125025294800,3.131294921875,-0.09478521347045898,-0.7525135278701782,-0.6418237686157227
1667255125030253300,3.13625341796875,-0.10620689392089844,-0.6159331798553467,-0.6019754409790039
1667255125035211800,3.141211669921875,-0.15483903884887695,-0.46099376678466797,-0.4712486267089844
1667255125040170500,3.14617041015625,-0.19049334526062012,-0.3135647773742676,-0.26331329345703125
1667255125045129000,3.15112890625,-0.16824913024902344,-0.162642240524292,-0.029641151428222656
1667255125050087400,3.15608740234375,-0.07591533660888672,-0.012528061866760254,0.15625
1667255125055046100,3.161046142578125,0.08967304229736328,0.07689905166625977,0.2963714599609375
1667255125060004600,3.166004638671875,0.2821199893951416,0.10939455032348633,0.3486814498901367
1667255125064963000,3.170963134765625,0.4046032428741455,0.02850162982940674,0.34848976135253906
1667255125069921800,3.175921875,0.47066545486450195,-0.15492796897888184,0.3045063018798828
1667255125074880300,3.18088037109375,0.4075620174407959,-0.34225404262542725,0.19911575317382812
1667255125079838700,3.185838623046875,0.27370548248291016,-0.46064698696136475,0.0634908676147461
1667255125084797400,3.19079736328125,0.11282515525817871,-0.49820709228515625,-0.103546142578125
1667255125089756000,3.195755859375,-0.05266571044921875,-0.5096837282180786,-0.26056766510009766
1667255125094714400,3.20071435546875,-0.23323488235473633,-0.5046044588088989,-0.32984447479248047
1667255125099673000,3.205673095703125,-0.3531644344329834,-0.4723649024963379,-0.3753023147583008
1667255125104631600,3.210631591796875,-0.3328554630279541,-0.4051591157913208,-0.38188743591308594
1667255125109590000,3.215590087890625,-0.27280092239379883,-0.2998887300491333,-0.3844308853149414
1667255125114548700,3.220548828125,-0.23464202880859375,-0.1631852388381958,-0.368804931640625
1667255125119507200,3.225507080078125,-0.21569252014160156,-0.02157878875732422,-0.3351907730102539
1667255125124465700,3.230465576171875,-0.19794845581054688,0.07375156879425049,-0.3240852355957031
1667255125129424100,3.235424072265625,-0.17748761177062988,0.125343918800354,-0.2559041976928711
1667255125134382800,3.2403828125,-0.2238459587097168,0.1344383955001831,-0.13599681854248047
1667255125139341300,3.24534130859375,-0.2508716583251953,0.14121758937835693,-0.013413429260253906
1667255125144299800,3.2502998046875,-0.20314717292785645,0.13477516174316406,0.0953226089477539
1667255125149258500,3.255258544921875,-0.13314294815063477,0.061713576316833496,0.17522907257080078
1667255125154217000,3.260217041015625,0.03967022895812988,-0.03957033157348633,0.20681095123291016
1667255125159175400,3.265175537109375,0.19370818138122559,-0.17298340797424316,0.14322662353515625
1667255125164134100,3.270134033203125,0.20543527603149414,-0.32685160636901855,0.05880165100097656
1667255125169092600,3.275092529296875,0.14920258522033691,-0.4576690196990967,-0.033209800720214844
1667255125174051000,3.280051025390625,0.04794931411743164,-0.5284824371337891,-0.06987571716308594
1667255125179009800,3.285009765625,-0.10872530937194824,-0.5101059675216675,-0.045693397521972656
1667255125183968300,3.28996826171875,-0.2709488868713379,-0.46372532844543457,-0.00018596649169921875
1667255125188927000,3.294927001953125,-0.39519548416137695,-0.466705322265625,0.06424236297607422
1667255125193885400,3.299885498046875,-0.4925861358642578,-0.4949849843978882,0.09173107147216797
1667255125198844000,3.304843994140625,-0.49449992179870605,-0.5079728364944458,0.09917831420898438
1667255125203802400,3.30980224609375,-0.4287264347076416,-0.5191711187362671,0.16975688934326172
1667255125208761000,3.314760986328125,-0.31458330154418945,-0.4615187644958496,0.3314332962036133
1667255125213719600,3.319719482421875,-0.08890676498413086,-0.3599609136581421,0.43543529510498047
1667255125218678000,3.324677978515625,0.17655587196350098,-0.24736297130584717,0.5039701461791992
1667255125223636700,3.32963671875,0.39223504066467285,-0.20445072650909424,0.5658960342407227
1667255125228595200,3.33459521484375,0.5205931663513184,-0.2067495584487915,0.5548019409179688
1667255125233553700,3.3395537109375,0.5709519386291504,-0.24393010139465332,0.509089469909668
1667255125238512400,3.344512451171875,0.514885425567627,-0.26920998096466064,0.45966053009033203
1667255125243470800,3.349470947265625,0.3421506881713867,-0.30160975456237793,0.38492393493652344
1667255125248429300,3.35442919921875,0.09613323211669922,-0.3291252851486206,0.29068851470947266
1667255125253388000,3.359387939453125,-0.2048351764678955,-0.35532402992248535,0.1933155059814453
1667255125258346500,3.364346435546875,-0.45854640007019043,-0.3668707609176636,0.0675210952758789
1667255125263305000,3.369304931640625,-0.5971226692199707,-0.39949798583984375,-0.0238189697265625
1667255125268263700,3.374263671875,-0.6199519634246826,-0.3784860372543335,-0.08347702026367188
1667255125273222100,3.37922216796875,-0.515174150466919,-0.3197678327560425,-0.15196800231933594
1667255125278180600,3.3841806640625,-0.35765790939331055,-0.2523019313812256,-0.1994342803955078
1667255125283139300,3.389139404296875,-0.21928882598876953,-0.19288480281829834,-0.21881961822509766
1667255125288097800,3.394097900390625,-0.12492036819458008,-0.17210888862609863,-0.22814655303955078
1667255125293056300,3.39905615234375,-0.1323096752166748,-0.13862717151641846,-0.23343658447265625
1667255125298015000,3.404014892578125,-0.20522165298461914,-0.05455935001373291,-0.18837451934814453
1667255125302973400,3.408973388671875,-0.25687384605407715,0.05600154399871826,-0.14070510864257812
1667255125307932000,3.413931884765625,-0.28307366371154785,0.2131577730178833,-0.13186073303222656
1667255125312890600,3.418890625,-0.3094210624694824,0.3194248676300049,-0.047478675842285156
1667255125317849000,3.42384912109375,-0.29828882217407227,0.4202570915222168,0.034829139709472656
1667255125322807600,3.4288076171875,-0.21034550666809082,0.5024755001068115,0.17586898803710938
1667255125327766300,3.433766357421875,-0.05619645118713379,0.5860651731491089,0.2970771789550781
1667255125332724700,3.438724853515625,0.16426658630371094,0.6410354375839233,0.4036092758178711
1667255125337683200,3.44368310546875,0.4022185802459717,0.6235235929489136,0.4757347106933594
1667255125342642000,3.448641845703125,0.6697170734405518,0.5364842414855957,0.47370147705078125
1667255125347600400,3.453600341796875,0.8451211452484131,0.37014663219451904,0.3685312271118164
1667255125352558800,3.458558837890625,0.902195930480957,0.1812373399734497,0.24872684478759766
1667255125357517600,3.463517578125,0.8459010124206543,0.011926770210266113,0.10231304168701172
1667255125362476000,3.46847607421875,0.6845355033874512,-0.08457005023956299,-0.02785015106201172
1667255125367434500,3.4734345703125,0.46895408630371094,-0.1162264347076416,-0.13714981079101562
1667255125372393200,3.478393310546875,0.2073514461517334,-0.14286863803863525,-0.21411705017089844
1667255125377351700,3.4833515625,-0.0871739387512207,-0.1678556203842163,-0.2831001281738281
1667255125382310100,3.48831005859375,-0.3245077133178711,-0.19472122192382812,-0.36228275299072266
1667255125387268900,3.493268798828125,-0.44400739669799805,-0.21743762493133545,-0.473175048828125
1667255125392227300,3.498227294921875,-0.4514164924621582,-0.23824143409729004,-0.5621557235717773
1667255125397185800,3.503185791015625,-0.38146376609802246,-0.2583507299423218,-0.6244516372680664
1667255125402144500,3.50814453125,-0.24291515350341797,-0.30971431732177734,-0.6599359512329102
1667255125407103000,3.51310302734375,-0.07626080513000488,-0.39643001556396484,-0.7398128509521484
1667255125412061400,3.5180615234375,0.06108236312866211,-0.47137272357940674,-0.8233938217163086
1667255125417020200,3.523020263671875,0.12327766418457031,-0.44899535179138184,-0.8549880981445312
1667255125421978600,3.527978515625,0.13491559028625488,-0.287742018699646,-0.8136796951293945
1667255125426937000,3.53293701171875,0.10504651069641113,-0.07835197448730469,-0.7143077850341797
1667255125431895800,3.537895751953125,-0.01975417137145996,0.1045917272567749,-0.6097307205200195
1667255125436854300,3.542854248046875,-0.23015856742858887,0.1980583667755127,-0.5301237106323242
1667255125441812700,3.547812744140625,-0.4883098602294922,0.178993821144104,-0.4960355758666992
1667255125446771500,3.552771484375,-0.612555980682373,0.07546746730804443,-0.5121660232543945
1667255125451730000,3.55772998046875,-0.538259744644165,-0.07885849475860596,-0.5165538787841797
1667255125456688400,3.5626884765625,-0.3166511058807373,-0.22203397750854492,-0.5307235717773438
1667255125461647000,3.567647216796875,-0.04658985137939453,-0.3531918525695801,-0.5164480209350586
1667255125466605600,3.57260546875,0.21832609176635742,-0.44036638736724854,-0.5447788238525391
1667255125471564000,3.57756396484375,0.41504383087158203,-0.489770770072937,-0.5721244812011719
1667255125476522800,3.582522705078125,0.47995710372924805,-0.5177524089813232,-0.5660820007324219
1667255125481481200,3.587481201171875,0.49742865562438965,-0.5189952850341797,-0.5468759536743164
1667255125486439700,3.592439697265625,0.5123770236968994,-0.461112380027771,-0.5536727905273438
1667255125491398400,3.5973984375,0.475888729095459,-0.31245601177215576,-0.5185413360595703
1667255125496356900,3.60235693359375,0.37554121017456055,-0.12825870513916016,-0.4573497772216797
1667255125501315300,3.6073154296875,0.2123579978942871,0.05522918701171875,-0.3490734100341797
1667255125506274000,3.612274169921875,-0.0012707710266113281,0.24221694469451904,-0.16241741180419922
1667255125511232500,3.617232421875,-0.224686861038208,0.36793434619903564,0.054229736328125
1667255125516191000,3.62219091796875,-0.35268473625183105,0.4441293478012085,0.23522281646728516
1667255125521149700,3.627149658203125,-0.36680078506469727,0.45192253589630127,0.3831958770751953
1667255125526108200,3.632108154296875,-0.2799949645996094,0.37279629707336426,0.4332618713378906
1667255125531066600,3.637066650390625,-0.15427398681640625,0.2742372751235962,0.41727542877197266
1667255125536025300,3.642025390625,0.01020956039428711,0.1828923225402832,0.3467741012573242
1667255125540983800,3.64698388671875,0.12221336364746094,0.095680832862854,0.27103137969970703
1667255125545942300,3.6519423828125,0.1432020664215088,0.03786122798919678,0.22597122192382812
1667255125550901000,3.65690087890625,0.21134495735168457,0.002473115921020508,0.17142868041992188
1667255125555859500,3.661859375,0.25662970542907715,-0.027927041053771973,0.0946044921875
1667255125560818200,3.666818115234375,0.24258899688720703,-0.0007221698760986328,0.0026617050170898438
1667255125565776600,3.671776611328125,0.18325018882751465,0.09206032752990723,-0.08194541931152344
1667255125570735000,3.676735107421875,0.06792783737182617,0.23561501502990723,-0.09312725067138672
1667255125575693800,3.68169384765625,-0.09000325202941895,0.40506088733673096,-0.03291606903076172
1667255125580652300,3.68665234375,-0.2928469181060791,0.5437897443771362,0.07178878784179688
1667255125585610800,3.69161083984375,-0.4656338691711426,0.5780576467514038,0.16812515258789062
1667255125590569500,3.696569580078125,-0.5876278877258301,0.5111575126647949,0.2522897720336914
1667255125595528000,3.70152783203125,-0.5997695922851562,0.3810000419616699,0.2447805404663086
1667255125600486400,3.706486328125,-0.462139368057251,0.2523254156112671,0.1976032257080078
1667255125605445000,3.711445068359375,-0.2243053913116455,0.13362717628479004,0.16001129150390625
1667255125610403600,3.716403564453125,0.015927791595458984,0.04046463966369629,0.12389373779296875
1667255125615362000,3.721362060546875,0.20085668563842773,0.005836844444274902,0.13458728790283203
1667255125620320800,3.72632080078125,0.33759021759033203,0.00399935245513916,0.18601036071777344
1667255125625279200,3.731279296875,0.41686320304870605,0.046398162841796875,0.3004579544067383
1667255125630237700,3.73623779296875,0.4479866027832031,0.05166423320770264,0.40253639221191406
1667255125635196400,3.741196533203125,0.41802358627319336,0.05570101737976074,0.5038843154907227
1667255125640155000,3.74615478515625,0.36280274391174316,0.07751655578613281,0.569767951965332
1667255125645113300,3.75111328125,0.2617664337158203,0.10270309448242188,0.5824766159057617
1667255125650072000,3.756072021484375,0.16428589820861816,0.116790771484375,0.6254196166992188
1667255125655030500,3.761030517578125,0.04187822341918945,0.1267794370651245,0.6948184967041016
1667255125659989000,3.765989013671875,-0.04881930351257324,0.13587713241577148,0.766993522644043
1667255125664947700,3.77094775390625,-0.08054637908935547,0.1950533390045166,0.8161706924438477
1667255125669906200,3.77590625,-0.09161019325256348,0.21734082698822021,0.8310394287109375
1667255125674864600,3.78086474609375,-0.09590673446655273,0.21758508682250977,0.7610502243041992
1667255125679823400,3.7858232421875,-0.06207442283630371,0.20573699474334717,0.6830024719238281
1667255125684781800,3.79078173828125,-0.005974531173706055,0.18791663646697998,0.629023551940918
1667255125689740300,3.795740234375,0.05537009239196777,0.16519010066986084,0.571742057800293
1667255125694699000,3.800698974609375,0.11838746070861816,0.157548189163208,0.5124053955078125
1667255125699657500,3.805657470703125,0.11335992813110352,0.18628239631652832,0.44024085998535156
1667255125704616200,3.8106162109375,0.010703563690185547,0.1905660629272461,0.3978290557861328
1667255125709574700,3.81557470703125,-0.10389161109924316,0.17171239852905273,0.3799600601196289
1667255125714533000,3.820533203125,-0.18476343154907227,0.14640700817108154,0.38034915924072266
1667255125719491800,3.825491943359375,-0.2009897232055664,0.12292039394378662,0.32517433166503906
1667255125724450300,3.8304501953125,-0.19214296340942383,0.1286240816116333,0.24686908721923828
1667255125729408800,3.83540869140625,-0.1450023651123047,0.0780491828918457,0.14307498931884766
1667255125734367500,3.840367431640625,-0.10319995880126953,0.04422950744628906,-0.013537406921386719
1667255125739326000,3.845325927734375,-0.05682730674743652,0.050916194915771484,-0.15744686126708984
1667255125744284400,3.850284423828125,-0.003117799758911133,0.04781603813171387,-0.25805187225341797
1667255125749243100,3.8552431640625,0.0545811653137207,0.002971053123474121,-0.3181915283203125
1667255125754201600,3.86020166015625,0.10471820831298828,-0.09535443782806396,-0.4082975387573242
1667255125759160000,3.86516015625,0.1712658405303955,-0.23247671127319336,-0.4724264144897461
1667255125764118800,3.870118896484375,0.2220630645751953,-0.36414337158203125,-0.5309762954711914
1667255125769077200,3.8750771484375,0.2813553810119629,-0.42640769481658936,-0.6299543380737305
1667255125774035700,3.88003564453125,0.3895573616027832,-0.44806158542633057,-0.6832571029663086
1667255125778994400,3.884994384765625,0.39749789237976074,-0.47668278217315674,-0.739781379699707
1667255125783953000,3.889952880859375,0.3035776615142822,-0.486855149269104,-0.7877006530761719
1667255125788911400,3.894911376953125,0.17504262924194336,-0.46774327754974365,-0.7879810333251953
1667255125793870000,3.8998701171875,0.03482699394226074,-0.42651546001434326,-0.7695693969726562
1667255125798828500,3.90482861328125,-0.09641146659851074,-0.3938772678375244,-0.7399539947509766
1667255125803787300,3.909787353515625,-0.21708273887634277,-0.32335448265075684,-0.6934967041015625
1667255125808745700,3.914745849609375,-0.26178622245788574,-0.23823237419128418,-0.5805072784423828
1667255125813704200,3.9197041015625,-0.19921875,-0.13681721687316895,-0.39545440673828125
1667255125818663000,3.924662841796875,-0.09227442741394043,-0.05071890354156494,-0.20395183563232422
1667255125823621400,3.929621337890625,0.009695768356323242,0.05649721622467041,-0.011760711669921875
1667255125828579800,3.934579833984375,0.13909006118774414,0.14534986019134521,0.10789871215820312
1667255125833538600,3.93953857421875,0.2307283878326416,0.18531262874603271,0.1155862808227539
1667255125838497000,3.9444970703125,0.22988367080688477,0.1570206880569458,0.06926822662353516
1667255125843455500,3.94945556640625,0.17979860305786133,0.10394883155822754,0.03588294982910156
1667255125848414200,3.954414306640625,0.10078907012939453,0.10108137130737305,0.043883323669433594
1667255125853372700,3.95937255859375,0.032076358795166016,0.1406095027923584,0.0799856185913086
1667255125858331100,3.9643310546875,-0.009845972061157227,0.21254873275756836,0.10365772247314453
1667255125863289900,3.969289794921875,-0.0203707218170166,0.24664700031280518,0.06988525390625
1667255125868248300,3.974248291015625,-0.004143953323364258,0.20790016651153564,-0.011547088623046875
1667255125873206800,3.979206787109375,0.04128718376159668,0.10551285743713379,-0.14752769470214844
1667255125878165500,3.98416552734375,0.1181192398071289,-0.0028727054595947266,-0.2688426971435547
1667255125883124000,3.9891240234375,0.16719579696655273,-0.0754399299621582,-0.39954376220703125
1667255125888082700,3.994082763671875,0.14452552795410156,-0.13383138179779053,-0.4532613754272461
1667255125893041200,3.999041259765625,0.10607457160949707,-0.1437985897064209,-0.4783802032470703
1667255125897999600,4.00399951171875,0.0456693172454834,-0.11186623573303223,-0.4908304214477539
1667255125902958000,4.0089580078125,-0.047675371170043945,-0.08604753017425537,-0.47432899475097656
1667255125907916800,4.013916748046875,-0.14113736152648926,0.009236812591552734,-0.3912668228149414
1667255125912875300,4.018875244140625,-0.20240306854248047,0.09606587886810303,-0.3170032501220703
1667255125917834000,4.023833984375,-0.3108532428741455,0.16489899158477783,-0.24090194702148438
1667255125922792400,4.02879248046875,-0.3558692932128906,0.1872415542602539,-0.18661975860595703
1667255125927751000,4.0337509765625,-0.3347280025482178,0.20145344734191895,-0.1384286880493164
1667255125932709600,4.038709716796875,-0.27804994583129883,0.19938981533050537,-0.09850120544433594
1667255125937668000,4.043668212890625,-0.15567898750305176,0.20024752616882324,-0.08323955535888672
1667255125942626800,4.048626708984375,0.012325763702392578,0.21944308280944824,-0.0673208236694336
1667255125947585300,4.053585205078125,0.14800286293029785,0.2508639097213745,-0.023278236389160156
1667255125952543700,4.058543701171875,0.2618718147277832,0.2610158920288086,0.07732486724853516
1667255125957502200,4.063502197265625,0.321561336517334,0.22882568836212158,0.1772317886352539
1667255125962461000,4.0684609375,0.3838472366333008,0.12531304359436035,0.2125396728515625
1667255125967419400,4.07341943359375,0.39826512336730957,0.015509963035583496,0.1993427276611328
1667255125972378000,4.078378173828125,0.4075806140899658,-0.05148661136627197,0.14875221252441406
1667255125977336600,4.083336669921875,0.4123508930206299,-0.12811028957366943,0.0755147933959961
1667255125982295000,4.088294921875,0.4531865119934082,-0.1854267120361328,-0.021126747131347656
1667255125987253800,4.093253662109375,0.39874982833862305,-0.23852038383483887,-0.11837196350097656
1667255125992212200,4.098212158203125,0.27680540084838867,-0.270427942276001,-0.22806072235107422
1667255125997170700,4.103170654296875,0.08590960502624512,-0.2560321092605591,-0.3431863784790039
1667255126002129400,4.10812939453125,-0.13811874389648438,-0.1707977056503296,-0.3868741989135742
1667255126007087900,4.113087890625,-0.34060120582580566,-0.03944218158721924,-0.3860893249511719
1667255126012046300,4.11804638671875,-0.4458444118499756,0.10974013805389404,-0.3402748107910156
1667255126017005000,4.123005126953125,-0.43718576431274414,0.2510632276535034,-0.30098819732666016
1667255126021963500,4.127963623046875,-0.3243725299835205,0.36865758895874023,-0.26237964630126953
1667255126026922000,4.132921875,-0.1331026554107666,0.426871657371521,-0.24458885192871094
1667255126031880700,4.137880615234375,0.08241128921508789,0.4355260133743286,-0.28887271881103516
1667255126036839200,4.142839111328125,0.27912139892578125,0.4290837049484253,-0.3305187225341797
1667255126041798000,4.1477978515625,0.46648168563842773,0.40511059761047363,-0.42520999908447266
1667255126046756400,4.15275634765625,0.5724053382873535,0.3544149398803711,-0.582097053527832
1667255126051714800,4.15771484375,0.48100709915161133,0.2467939853668213,-0.7239522933959961
1667255126056673500,4.162673583984375,0.2581791877746582,0.14717698097229004,-0.909184455871582
1667255126061632000,4.167632080078125,0.13630175590515137,0.05936300754547119,-1.100691795349121
1667255126066590500,4.172590576171875,0.017148733139038086,0.01998138427734375,-1.2473583221435547
1667255126071549200,4.177549072265625,-0.10744690895080566,0.0034176111221313477,-1.3329353332519531
1667255126076507600,4.182507568359375,-0.18170166015625,0.014634490013122559,-1.3138494491577148
1667255126081466000,4.187466064453125,-0.2523071765899658,0.03353142738342285,-1.282125473022461
1667255126086424800,4.1924248046875,-0.2933650016784668,0.029674530029296875,-1.2518811225891113
1667255126091383300,4.19738330078125,-0.34427523612976074,0.00753629207611084,-1.2372231483459473
1667255126096342000,4.202342041015625,-0.396104097366333,0.06046319007873535,-1.2649555206298828
1667255126101300500,4.207300537109375,-0.19533419609069824,0.1448657512664795,-1.4215011596679688
1667255126106259000,4.212259033203125,0.22447705268859863,0.22955632209777832,-1.6928815841674805
1667255126111217700,4.2172177734375,0.6060607433319092,0.326343297958374,-2.057419776916504
1667255126116176100,4.222176025390625,0.8577156066894531,0.3297464847564697,-2.4575796127319336
1667255126121134600,4.227134521484375,0.796867847442627,0.4223339557647705,-3.027228832244873
1667255126126093300,4.23209326171875,1.0372533798217773,0.9318017959594727,-3.8962392807006836
1667255126131051800,4.2370517578125,1.2336983680725098,0.7707805633544922,-4.35515022277832
1667255126136010200,4.24201025390625,1.723123550415039,-0.0839536190032959,-4.92961311340332
1667255126140969000,4.246968994140625,2.3016369342803955,-1.2958805561065674,-5.906765937805176
1667255126145927400,4.251927490234375,2.345815896987915,-2.1714324951171875,-6.824633598327637
1667255126150886100,4.25688623046875,2.252943515777588,-2.776211977005005,-7.624029159545898
1667255126155844600,4.2618447265625,1.8590779304504395,-3.074816942214966,-8.184659957885742
1667255126160803000,4.266802978515625,1.0932674407958984,-3.182671070098877,-8.359884262084961
1667255126165761800,4.27176171875,0.677734375,-3.154958724975586,-8.416654586791992
1667255126170720300,4.27672021484375,0.308635950088501,-3.1017696857452393,-8.422062873840332
1667255126175678700,4.2816787109375,0.052969932556152344,-3.0840795040130615,-8.427586555480957
1667255126180637400,4.286637451171875,-0.13364291191101074,-3.0719375610351562,-8.405723571777344
1667255126185596000,4.291595947265625,-0.2309892177581787,-3.0808067321777344,-8.388760566711426
1667255126190554600,4.2965546875,-0.21889686584472656,-3.0963714122772217,-8.337212562561035
1667255126195513000,4.30151318359375,-0.09417247772216797,-3.154391288757324,-8.30837345123291
1667255126200471600,4.306471435546875,0.15938758850097656,-3.2417547702789307,-8.248237609863281
1667255126205430300,4.31143017578125,0.5699586868286133,-3.3524019718170166,-8.166239738464355
1667255126210388700,4.316388671875,1.0544397830963135,-3.454030752182007,-8.077703475952148
1667255126215347200,4.32134716796875,1.5155432224273682,-3.550158977508545,-7.981226921081543
1667255126220306000,4.326305908203125,1.904026746749878,-3.6491355895996094,-7.888561725616455
1667255126225264400,4.331264404296875,2.151876926422119,-3.709134340286255,-7.817513465881348
1667255126230222800,4.336222900390625,2.2643136978149414,-3.756455898284912,-7.741755485534668
1667255126235181600,4.341181640625,2.232473611831665,-3.768355369567871,-7.678133010864258
1667255126240140000,4.34614013671875,2.1014528274536133,-3.7795305252075195,-7.6519012451171875
1667255126245098500,4.351098388671875,1.8744227886199951,-3.781632900238037,-7.60941743850708
1667255126250057200,4.35605712890625,1.653719425201416,-3.761497974395752,-7.567638397216797
1667255126255015700,4.361015625,1.487438440322876,-3.753817081451416,-7.524229049682617
1667255126259974400,4.365974365234375,1.3936893939971924,-3.771657943725586,-7.486426830291748
1667255126264932900,4.370932861328125,1.409238338470459,-3.7981719970703125,-7.418240070343018
1667255126269891300,4.375891357421875,1.4871015548706055,-3.8166022300720215,-7.339809417724609
1667255126274850000,4.38085009765625,1.64595365524292,-3.84358286857605,-7.2520833015441895
1667255126279808500,4.38580859375,1.8579368591308594,-3.876633405685425,-7.1500468254089355
1667255126284767200,4.390767333984375,2.090668201446533,-3.9085614681243896,-7.069391250610352
1667255126289725700,4.3957255859375,2.3131728172302246,-3.936857223510742,-6.952686309814453
1667255126294684200,4.40068408203125,2.507984161376953,-3.979529857635498,-6.855012893676758
1667255126299642600,4.405642578125,2.6351590156555176,-4.000622749328613,-6.7622880935668945
1667255126304601300,4.410601318359375,2.696870803833008,-4.03258752822876,-6.682055473327637
1667255126309559800,4.415559814453125,2.6977357864379883,-4.0657501220703125,-6.616075038909912
1667255126314518500,4.4205185546875,2.656726837158203,-4.083505630493164,-6.549372673034668
1667255126319477000,4.42547705078125,2.571183204650879,-4.102624893188477,-6.514838695526123
1667255126324435500,4.430435546875,2.460968017578125,-4.099092483520508,-6.449720859527588
1667255126329394200,4.435394287109375,2.343200206756592,-4.090856075286865,-6.42375373840332
1667255126334352600,4.4403525390625,2.26723051071167,-4.087488174438477,-6.366796970367432
1667255126339311000,4.44531103515625,2.247373104095459,-4.079370021820068,-6.320919990539551
1667255126344269800,4.450269775390625,2.2646403312683105,-4.081976890563965,-6.270930290222168
1667255126349228300,4.455228271484375,2.315667152404785,-4.110822677612305,-6.2184247970581055
1667255126354187000,4.46018701171875,2.413698196411133,-4.1157660484313965,-6.1696600914001465
1667255126359145500,4.4651455078125,2.5480799674987793,-4.147061824798584,-6.108215808868408
1667255126364104000,4.47010400390625,2.71873140335083,-4.187936305999756,-6.056984901428223
1667255126369062700,4.475062744140625,2.9099483489990234,-4.210835933685303,-5.986185073852539
1667255126374021000,4.480021240234375,3.0998377799987793,-4.237366199493408,-5.925535202026367
1667255126378979800,4.484979736328125,3.3238258361816406,-4.233962059020996,-5.868863105773926
1667255126383938300,4.489938232421875,3.573080539703369,-4.231749534606934,-5.783624649047852
1667255126388896800,4.494896728515625,3.8447442054748535,-4.248581886291504,-5.710211277008057
1667255126393855500,4.49985546875,4.118079662322998,-4.266637802124023,-5.653039455413818
1667255126398814000,4.50481396484375,4.427128791809082,-4.276399612426758,-5.572116851806641
1667255126403772400,4.5097724609375,4.760283470153809,-4.304224967956543,-5.481027603149414
1667255126408731100,4.514731201171875,5.092543125152588,-4.314222812652588,-5.363201141357422
1667255126413689600,4.519689697265625,5.439357280731201,-4.320755958557129,-5.251989841461182
1667255126418648000,4.52464794921875,5.798230171203613,-4.2949934005737305,-5.106606483459473
1667255126423606800,4.529606689453125,6.158361911773682,-4.266887187957764,-4.971040725708008
1667255126428565200,4.534565185546875,6.486429691314697,-4.230413913726807,-4.799711227416992
1667255126433523700,4.539523681640625,6.757981777191162,-4.192685604095459,-4.6514458656311035
1667255126438482400,4.544482421875,6.979994297027588,-4.159694671630859,-4.497994422912598
1667255126443441000,4.54944091796875,7.128821849822998,-4.1242995262146,-4.360547065734863
1667255126448399600,4.554399658203125,7.231430530548096,-4.103271961212158,-4.217658996582031
1667255126453358000,4.559358154296875,7.31001615524292,-4.085841178894043,-4.09815788269043
1667255126458316500,4.564316650390625,7.364222049713135,-4.060148239135742,-3.979640483856201
1667255126463275300,4.569275146484375,7.434221267700195,-4.017783164978027,-3.858830451965332
1667255126468233700,4.574233642578125,7.502865791320801,-3.9886856079101562,-3.720613956451416
1667255126473192400,4.5791923828125,7.557848930358887,-3.9525277614593506,-3.57034969329834
1667255126478151000,4.58415087890625,7.613338470458984,-3.922480821609497,-3.4567530155181885
1667255126483109400,4.589109375,7.659608364105225,-3.8926587104797363,-3.335415840148926
1667255126488068000,4.594068115234375,7.69895076751709,-3.89182186126709,-3.2315831184387207
1667255126493026600,4.599026611328125,7.739453315734863,-3.858963966369629,-3.123868227005005
1667255126497985000,4.603985107421875,7.777180194854736,-3.829922914505005,-3.0328681468963623
1667255126502943700,4.60894384765625,7.815261363983154,-3.789166212081909,-2.957659959793091
1667255126507902200,4.613902099609375,7.872236728668213,-3.7367031574249268,-2.8913776874542236
1667255126512861000,4.61886083984375,7.930620193481445,-3.702404737472534,-2.8342514038085938
1667255126517819400,4.6238193359375,8.008637428283691,-3.658839464187622,-2.75765323638916
1667255126522777900,4.62877783203125,8.145655632019043,-3.638207197189331,-2.6898417472839355
1667255126527736600,4.633736572265625,8.323368072509766,-3.6010916233062744,-2.610628604888916
1667255126532695000,4.638695068359375,8.549599647521973,-3.5641303062438965,-2.520967960357666
1667255126537653500,4.643653564453125,8.829538345336914,-3.4627513885498047,-2.387645959854126
1667255126542612200,4.6486123046875,9.11585807800293,-3.378141403198242,-2.232487440109253
1667255126547570700,4.65357080078125,9.388921737670898,-3.2732131481170654,-2.0869553089141846
1667255126552529400,4.658529296875,9.6304349899292,-3.168175220489502,-1.9659894704818726
1667255126557487900,4.66348779296875,9.817584037780762,-3.090656042098999,-1.8251361846923828
1667255126562446300,4.6684462890625,10.000370979309082,-3.0238842964172363,-1.6902689933776855
1667255126567405000,4.673405029296875,10.18207836151123,-2.971421241760254,-1.585801362991333
1667255126572363500,4.678363525390625,10.385041236877441,-2.8961520195007324,-1.4665498733520508
1667255126577322000,4.683322021484375,10.587321281433105,-2.823310375213623,-1.3205389976501465
1667255126582280700,4.68828076171875,10.793313026428223,-2.7300643920898438,-1.1656968593597412
1667255126587239200,4.6932392578125,11.001582145690918,-2.651196002960205,-1.0141456127166748
1667255126592198000,4.698197998046875,11.185670852661133,-2.563988447189331,-0.8602139949798584
1667255126597156400,4.70315625,11.347931861877441,-2.4803004264831543,-0.7223786115646362
1667255126602114800,4.70811474609375,11.493168830871582,-2.390540838241577,-0.5522284507751465
1667255126607073500,4.713073486328125,11.602348327636719,-2.2707290649414062,-0.41394174098968506
1667255126612032000,4.718031982421875,11.69719123840332,-2.1530919075012207,-0.27149081230163574
1667255126616990700,4.72299072265625,11.756431579589844,-2.0448050498962402,-0.13805365562438965
1667255126621949200,4.72794921875,11.805408477783203,-1.9433739185333252,0.007944822311401367
1667255126626907600,4.73290771484375,11.851524353027344,-1.8224468231201172,0.14742374420166016
1667255126631866400,4.737866455078125,11.91050910949707,-1.7082250118255615,0.30929362773895264
1667255126636824800,4.742824951171875,11.978979110717773,-1.5647528171539307,0.45907068252563477
1667255126641783300,4.747783203125,12.028553009033203,-1.3990051746368408,0.6419243812561035
1667255126646742000,4.752741943359375,12.024984359741211,-1.2311139106750488,0.7973426580429077
1667255126651700500,4.757700439453125,11.937716484069824,-1.0715948343276978,0.9237793684005737
1667255126656659200,4.7626591796875,11.810318946838379,-0.9216687679290771,1.0227463245391846
1667255126661617700,4.76761767578125,11.659881591796875,-0.7980287075042725,1.0992393493652344
1667255126666576100,4.772576171875,11.526041030883789,-0.6863024830818176,1.1595358848571777
1667255126671534800,4.777534912109375,11.372941017150879,-0.5853529572486877,1.2188001871109009
1667255126676493300,4.782493408203125,11.260279655456543,-0.4781552851200104,1.262510061264038
1667255126681451800,4.78745166015625,11.177102088928223,-0.36965206265449524,1.3266429901123047
1667255126686410500,4.792410400390625,11.123188018798828,-0.2813159227371216,1.397138237953186
1667255126691369000,4.797368896484375,11.075572967529297,-0.19057336449623108,1.469822645187378
1667255126696327700,4.80232763671875,11.06510066986084,-0.10816171765327454,1.5324690341949463
1667255126701286100,4.8072861328125,11.081963539123535,-0.017326682806015015,1.6138933897018433
1667255126706244600,4.81224462890625,11.11760425567627,0.07963758707046509,1.6908015012741089
1667255126711203300,4.817203369140625,11.198162078857422,0.19436979293823242,1.7869577407836914
1667255126716161800,4.822161865234375,11.330696105957031,0.3005485534667969,1.8811767101287842
1667255126721120300,4.827120361328125,11.474526405334473,0.35982567071914673,1.9921549558639526
1667255126726079000,4.832078857421875,11.656018257141113,0.4570174217224121,2.1365761756896973
1667255126731037400,4.837037353515625,11.869304656982422,0.59440016746521,2.2916038036346436
1667255126735996200,4.84199609375,12.259143829345703,0.7552117109298706,2.4580371379852295
1667255126740954600,4.84695458984375,12.611669540405273,0.8916753530502319,2.632516384124756
1667255126745913000,4.8519130859375,12.892524719238281,1.0551555156707764,2.771639585494995
1667255126750871800,4.856871826171875,13.064976692199707,1.196549415588379,2.9030516147613525
1667255126755830300,4.861830322265625,13.152022361755371,1.3167860507965088,3.0181117057800293
1667255126760789000,4.8667890625,13.16942310333252,1.451613187789917,3.127786874771118
1667255126765747500,4.87174755859375,13.031309127807617,1.489641785621643,3.189568519592285
1667255126770706000,4.876705810546875,12.932012557983398,1.6296225786209106,3.308729887008667
1667255126775664600,4.88166455078125,12.814619064331055,1.905113935470581,3.4814584255218506
1667255126780623000,4.886623046875,12.607584953308105,2.088796615600586,3.5938706398010254
1667255126785581600,4.89158154296875,12.347978591918945,2.229668378829956,3.660290241241455
1667255126790540300,4.896540283203125,12.053485870361328,2.339508533477783,3.6922693252563477
1667255126795498800,4.901498779296875,11.744091033935547,2.4254043102264404,3.7195279598236084
1667255126800457500,4.90645751953125,11.474230766296387,2.5193426609039307,3.7384774684906006
1667255126805416000,4.911416015625,11.258906364440918,2.592535972595215,3.7616472244262695
1667255126810374400,4.91637451171875,11.0724458694458,2.683009147644043,3.773378849029541
1667255126815333000,4.9213330078125,10.804437637329102,2.7523856163024902,3.7883105278015137
1667255126820291600,4.92629150390625,10.516735076904297,2.8423376083374023,3.791599750518799
1667255126825250300,4.931250244140625,10.3130521774292,2.946894407272339,3.818824291229248
1667255126830208800,4.936208740234375,10.228873252868652,3.0551486015319824,3.844808578491211
1667255126835167200,4.941167236328125,10.199321746826172,3.1203277111053467,3.862520456314087
1667255126840126000,4.9461259765625,10.159760475158691,3.238100528717041,3.891465187072754
1667255126845084400,4.95108447265625,10.095613479614258,3.3722198009490967,3.912614583969116
1667255126850043000,4.95604296875,10.1107759475708,3.3896689414978027,3.929051160812378
1667255126855001600,4.961001708984375,10.16252613067627,3.414611577987671,3.963226795196533
1667255126859960000,4.9659599609375,10.18826675415039,3.5366640090942383,4.020349502563477
1667255126864918800,4.970918701171875,10.188864707946777,3.708096981048584,4.0825605392456055
1667255126869877200,4.975877197265625,10.20060920715332,3.8736228942871094,4.148031234741211
1667255126874835700,4.980835693359375,10.235761642456055,4.002215385437012,4.192509174346924
1667255126879794400,4.98579443359375,10.278806686401367,4.125953674316406,4.2355875968933105
1667255126884753000,4.9907529296875,10.280783653259277,4.232778072357178,4.273849964141846
1667255126889711400,4.99571142578125,10.24989128112793,4.311609268188477,4.2796831130981445
1667255126894670000,5.000670166015625,10.186190605163574,4.417417526245117,4.312861919403076
1667255126899628500,5.005628662109375,10.10024642944336,4.523628234863281,4.32406759262085
1667255126904587300,5.010587158203125,9.933287620544434,4.622870445251465,4.318929672241211
1667255126909545700,5.015545654296875,9.627950668334961,4.730770111083984,4.319648742675781
1667255126914504200,5.020504150390625,9.320363998413086,4.841273307800293,4.299312114715576
1667255126919463000,5.025462890625,9.065147399902344,4.9495415687561035,4.287025451660156
1667255126924421400,5.03042138671875,8.863042831420898,5.065162658691406,4.272231101989746
1667255126929380000,5.035380126953125,8.66819953918457,5.195317268371582,4.237339973449707
1667255126934338600,5.040338623046875,8.457499504089355,5.3305463790893555,4.225533485412598
1667255126939297000,5.045297119140625,8.273361206054688,5.422905921936035,4.19999361038208
1667255126944255700,5.050255859375,8.111740112304688,5.495169162750244,4.154058456420898
1667255126949214200,5.055214111328125,7.936324119567871,5.552023887634277,4.090937614440918
1667255126954172700,5.060172607421875,7.762452125549316,5.624485969543457,4.069285869598389
1667255126959131400,5.06513134765625,7.537630558013916,5.72705078125,4.048573970794678
1667255126964089900,5.07008984375,7.300228118896484,5.856138706207275,4.001692771911621
1667255126969048600,5.075048583984375,7.058699131011963,5.980790138244629,3.9717984199523926
1667255126974007000,5.080007080078125,6.844163417816162,6.091494083404541,3.943565845489502
1667255126978965500,5.084965576171875,6.639835357666016,6.1955156326293945,3.8870866298675537
1667255126983924200,5.08992431640625,6.446769714355469,6.278423309326172,3.8312489986419678
1667255126988882700,5.094882568359375,6.2912750244140625,6.362978458404541,3.772648334503174
1667255126993841400,5.09984130859375,6.200769424438477,6.43476676940918,3.727139711380005
1667255126998800000,5.1047998046875,6.140575885772705,6.52482795715332,3.6999001502990723
1667255127003758600,5.109758544921875,6.085720062255859,6.567425727844238,3.6650848388671875
1667255127008717000,5.114717041015625,6.035013198852539,6.625855445861816,3.6171817779541016
1667255127013675500,5.119675537109375,5.967182159423828,6.68938684463501,3.5722715854644775
1667255127018634200,5.12463427734375,5.868005275726318,6.775894641876221,3.5344130992889404
1667255127023592700,5.1295927734375,5.784229278564453,6.860237121582031,3.4873013496398926
1667255127028551200,5.13455126953125,5.668112277984619,6.910151481628418,3.4468069076538086
1667255127033510000,5.139510009765625,5.556835651397705,6.9926581382751465,3.399945020675659
1667255127038468400,5.14446826171875,5.4576311111450195,7.080256938934326,3.344548225402832
1667255127043427000,5.149427001953125,5.341823577880859,7.17415714263916,3.2998807430267334
1667255127048385500,5.154385498046875,5.22977876663208,7.246903419494629,3.2313575744628906
1667255127053344000,5.159343994140625,5.126299858093262,7.315284252166748,3.185704469680786
1667255127058302700,5.164302734375,5.025290012359619,7.3852386474609375,3.1235365867614746
1667255127063261200,5.16926123046875,4.93743371963501,7.4388427734375,3.0616352558135986
1667255127068219600,5.1742197265625,4.830417156219482,7.508394241333008,3.003624439239502
1667255127073178400,5.179178466796875,4.716114521026611,7.566357612609863,2.9520039558410645
1667255127078136800,5.18413671875,4.60768985748291,7.627142429351807,2.9007887840270996
1667255127083095600,5.189095458984375,4.477646350860596,7.700362205505371,2.837965488433838
1667255127088054000,5.194053955078125,4.335508346557617,7.751373767852783,2.7694814205169678
1667255127093012500,5.199012451171875,4.189676761627197,7.8436174392700195,2.719115972518921
1667255127097971200,5.20397119140625,4.029269695281982,7.924489498138428,2.663938522338867
1667255127102929700,5.2089296875,3.874617099761963,7.990466117858887,2.585996627807617
1667255127107888400,5.213888427734375,3.720803737640381,8.034417152404785,2.5138134956359863
1667255127112846800,5.218846923828125,3.582077741622925,8.09463882446289,2.4316933155059814
1667255127117805600,5.2238056640625,3.4595987796783447,8.14369010925293,2.3765242099761963
1667255127122764000,5.228763916015625,3.342379570007324,8.18990707397461,2.3123998641967773
1667255127127722500,5.233722412109375,3.2411258220672607,8.238105773925781,2.264362096786499
1667255127132681200,5.23868115234375,3.1389362812042236,8.275134086608887,2.1940901279449463
1667255127137639700,5.2436396484375,3.0430166721343994,8.307031631469727,2.1135613918304443
1667255127142598100,5.24859814453125,2.9628355503082275,8.331432342529297,2.0609750747680664
1667255127147556900,5.253556884765625,2.883971691131592,8.368660926818848,2.0100762844085693
1667255127152515300,5.258515380859375,2.8147189617156982,8.392436981201172,1.916623592376709
1667255127157474000,5.26347412109375,2.7371349334716797,8.431480407714844,1.8739354610443115
1667255127162432500,5.2684326171875,2.6559460163116455,8.465456008911133,1.8008015155792236
1667255127167391000,5.273390869140625,2.596280336380005,8.486066818237305,1.7545537948608398
1667255127172349700,5.278349609375,2.52095103263855,8.51481819152832,1.6815297603607178
1667255127177308200,5.28330810546875,2.4550817012786865,8.529045104980469,1.6259403228759766
1667255127182266600,5.2882666015625,2.3987131118774414,8.558675765991211,1.5747206211090088
1667255127187225300,5.293225341796875,2.3601386547088623,8.58340072631836,1.5134830474853516
1667255127192183800,5.298183837890625,2.3154571056365967,8.603252410888672,1.462688684463501
1667255127197142500,5.303142578125,2.293325901031494,8.623045921325684,1.3816947937011719
1667255127202101000,5.30810107421875,2.2662835121154785,8.632064819335938,1.3351497650146484
1667255127207059700,5.313059814453125,2.2652840614318848,8.641075134277344,1.28243887424469
1667255127212018200,5.31801806640625,2.273581027984619,8.648913383483887,1.2308530807495117
1667255127216976600,5.3229765625,2.264936923980713,8.661591529846191,1.1685534715652466
1667255127221935400,5.327935302734375,2.271616220474243,8.677942276000977,1.112267017364502
1667255127226893800,5.332893798828125,2.285153388977051,8.683634757995605,1.0812020301818848
1667255127231852500,5.3378525390625,2.3210320472717285,8.691854476928711,1.0168039798736572
1667255127236811000,5.34281103515625,2.3385844230651855,8.697846412658691,0.9741698503494263
1667255127241769500,5.34776953125,2.3736863136291504,8.692083358764648,0.9115594625473022
1667255127246728200,5.352728271484375,2.3880276679992676,8.694929122924805,0.8588247299194336
1667255127251686700,5.357686767578125,2.4079041481018066,8.706400871276855,0.8244204521179199
1667255127256645000,5.36264501953125,2.428534984588623,8.71935749053955,0.755731463432312
1667255127261603800,5.367603759765625,2.4366793632507324,8.719480514526367,0.7173699140548706
1667255127266562300,5.372562255859375,2.457530975341797,8.731926918029785,0.6698938608169556
1667255127271521000,5.37752099609375,2.4802088737487793,8.725632667541504,0.6240814924240112
1667255127276479500,5.3824794921875,2.5011208057403564,8.714996337890625,0.5703953504562378
1667255127281438200,5.387438232421875,2.5202219486236572,8.719168663024902,0.5339655876159668
1667255127286396700,5.392396728515625,2.556603193283081,8.72382926940918,0.4968256652355194
1667255127291355100,5.397355224609375,2.5815486907958984,8.696743965148926,0.44707971811294556
1667255127296313900,5.40231396484375,2.630854845046997,8.69772720336914,0.4061756730079651
1667255127301272300,5.407272216796875,2.68405818939209,8.675384521484375,0.349029004573822
1667255127306231000,5.41223095703125,2.732682228088379,8.682344436645508,0.31516048312187195
1667255127311189500,5.417189453125,2.7826600074768066,8.652878761291504,0.28058603405952454
1667255127316148000,5.42214794921875,2.8709816932678223,8.648002624511719,0.23570479452610016
1667255127321106700,5.427106689453125,2.9293534755706787,8.600790023803711,0.19138988852500916
1667255127326065200,5.432065185546875,3.0020177364349365,8.591385841369629,0.1607169210910797
1667255127331024000,5.43702392578125,3.0720465183258057,8.565984725952148,0.12577804923057556
1667255127335982300,5.441982421875,3.1596333980560303,8.524625778198242,0.0948837548494339
1667255127340940800,5.44694091796875,3.2431955337524414,8.505593299865723,0.06925758719444275
1667255127345899500,5.4518994140625,3.326141357421875,8.465853691101074,0.04769851267337799
1667255127350858000,5.45685791015625,3.400055170059204,8.426963806152344,0.005183815956115723
1667255127355816700,5.461816650390625,3.4970855712890625,8.372206687927246,-0.029723823070526123
1667255127360775200,5.466775146484375,3.601490020751953,8.321920394897461,-0.05579334497451782
1667255127365733600,5.471733642578125,3.7023942470550537,8.273723602294922,-0.08970126509666443
1667255127370692400,5.4766923828125,3.833037853240967,8.228804588317871,-0.10519003868103027
1667255127375650800,5.48165087890625,3.955110549926758,8.156094551086426,-0.12866279482841492
1667255127380609500,5.486609619140625,4.077964782714844,8.09625244140625,-0.15642249584197998
1667255127385568000,5.491568115234375,4.201379299163818,8.011004447937012,-0.17421090602874756
1667255127390526500,5.4965263671875,4.33605432510376,7.946977615356445,-0.21901029348373413
1667255127395485200,5.501485107421875,4.461447715759277,7.86946439743042,-0.2334572672843933
1667255127400443600,5.506443603515625,4.591770648956299,7.786820411682129,-0.24743667244911194
1667255127405402400,5.51140234375,4.70293664932251,7.712158203125,-0.2477576732635498
1667255127410360800,5.51636083984375,4.800838947296143,7.6107707023620605,-0.2727017402648926
1667255127415319300,5.5213193359375,4.909292221069336,7.538797378540039,-0.3163023591041565
1667255127420278000,5.526278076171875,4.992332935333252,7.451934337615967,-0.3175176978111267
1667255127425236500,5.531236572265625,5.089175701141357,7.360875129699707,-0.3360978960990906
1667255127430195200,5.5361953125,5.1567792892456055,7.265542984008789,-0.36490315198898315
1667255127435153700,5.541153564453125,5.245367050170898,7.177811622619629,-0.3728334903717041
1667255127440112400,5.5461123046875,5.328488349914551,7.095183849334717,-0.3813113570213318
1667255127445070800,5.55107080078125,5.3918681144714355,6.988865852355957,-0.39638346433639526
1667255127450029300,5.556029296875,5.461655616760254,6.892208099365234,-0.4192635416984558
1667255127454988000,5.560988037109375,5.4961466789245605,6.797917366027832,-0.4236236810684204
1667255127459946500,5.565946533203125,5.544458389282227,6.710643291473389,-0.4632647633552551
1667255127464905000,5.570905029296875,5.5814595222473145,6.619462013244629,-0.48327189683914185
1667255127469863700,5.57586376953125,5.614524841308594,6.532617568969727,-0.4955989122390747
1667255127474822100,5.580822265625,5.656914710998535,6.435606002807617,-0.4979708194732666
1667255127479780900,5.58578076171875,5.689599514007568,6.329476833343506,-0.5250765085220337
1667255127484739300,5.5907392578125,5.728290557861328,6.25590705871582,-0.5554468631744385
1667255127489698000,5.595697998046875,5.764805793762207,6.153755187988281,-0.5736352205276489
1667255127494656500,5.600656494140625,5.802968978881836,6.0492095947265625,-0.5939908027648926
1667255127499615000,5.605614990234375,5.854854583740234,5.9636077880859375,-0.6070199012756348
1667255127504573700,5.61057373046875,5.908698081970215,5.871678352355957,-0.6127740144729614
1667255127509532200,5.6155322265625,5.992137908935547,5.773257255554199,-0.6173085570335388
1667255127514491000,5.620490966796875,6.054009437561035,5.665841102600098,-0.6456342935562134
1667255127519449300,5.625449462890625,6.111183166503906,5.571962356567383,-0.642817497253418
1667255127524408000,5.630407958984375,6.178308486938477,5.481928825378418,-0.6459367871284485
1667255127529366500,5.635366455078125,6.246001243591309,5.387223720550537,-0.6502127647399902
1667255127534325000,5.640324951171875,6.3084821701049805,5.29249382019043,-0.6699535846710205
1667255127539283700,5.64528369140625,6.388697147369385,5.192849636077881,-0.6668204069137573
1667255127544242200,5.6502421875,6.48917293548584,5.069052219390869,-0.6765483617782593
1667255127549200600,5.65520068359375,6.596952438354492,4.975990295410156,-0.6643527746200562
1667255127554159400,5.660159423828125,6.721778869628906,4.841832160949707,-0.6695247888565063
1667255127559117800,5.665117919921875,6.847041130065918,4.738208770751953,-0.6595696210861206
1667255127564076500,5.67007666015625,7.003900051116943,4.620739459991455,-0.6474123597145081
1667255127569035000,5.675034912109375,7.152012825012207,4.484653472900391,-0.637574315071106
1667255127573993700,5.67999365234375,7.279552459716797,4.376463890075684,-0.623833179473877
1667255127578952200,5.6849521484375,7.415441513061523,4.25188684463501,-0.6023076772689819
1667255127583910700,5.68991064453125,7.524080276489258,4.127660751342773,-0.5799006223678589
1667255127588869400,5.694869384765625,7.610544681549072,4.030060768127441,-0.5516505241394043
1667255127593827800,5.699827880859375,7.660942554473877,3.9352641105651855,-0.5209596157073975
1667255127598786600,5.70478662109375,7.698286056518555,3.852814197540283,-0.5141364336013794
1667255127603745000,5.7097451171875,7.715880393981934,3.767338752746582,-0.4987637996673584
1667255127608703700,5.714703857421875,7.7212605476379395,3.6992645263671875,-0.4903373718261719
1667255127613662200,5.719662109375,7.7328386306762695,3.6439900398254395,-0.4567602872848511
1667255127618620700,5.72462060546875,7.740222454071045,3.5682291984558105,-0.45425164699554443
1667255127623579400,5.729579345703125,7.753351211547852,3.5164270401000977,-0.4410982131958008
1667255127628537900,5.734537841796875,7.790476322174072,3.4576921463012695,-0.40911316871643066
1667255127633496300,5.739496337890625,7.849508762359619,3.3994510173797607,-0.3811485767364502
1667255127638455000,5.744455078125,7.914012432098389,3.3395419120788574,-0.3623204231262207
1667255127643413500,5.74941357421875,7.969945430755615,3.2866201400756836,-0.34447669982910156
1667255127648372200,5.754372314453125,8.014009475708008,3.224186658859253,-0.31611740589141846
1667255127653330700,5.75933056640625,8.072771072387695,3.17767333984375,-0.29065775871276855
1667255127658289400,5.764289306640625,8.11775016784668,3.112718343734741,-0.26597392559051514
1667255127663248000,5.769247802734375,8.180068969726562,3.065284013748169,-0.2616020441055298
1667255127668206300,5.774206298828125,8.246768951416016,2.989166498184204,-0.2273845672607422
1667255127673165000,5.7791650390625,8.339365005493164,2.9204137325286865,-0.20420241355895996
1667255127678123500,5.78412353515625,8.456695556640625,2.853322982788086,-0.18018198013305664
1667255127683082200,5.789082275390625,8.573568344116211,2.778475761413574,-0.14698398113250732
1667255127688040700,5.794040771484375,8.68526554107666,2.6962146759033203,-0.11655020713806152
1667255127692999400,5.79899951171875,8.80367660522461,2.613877296447754,-0.08774638175964355
1667255127697958000,5.8039580078125,8.912028312683105,2.537675380706787,-0.05815744400024414
1667255127702916400,5.808916259765625,9.00313949584961,2.4786226749420166,-0.009823918342590332
1667255127707875000,5.813875,9.079405784606934,2.3951587677001953,0.009363055229187012
1667255127712833500,5.81883349609375,9.162224769592285,2.317356586456299,0.029489874839782715
1667255127717792300,5.823792236328125,9.257491111755371,2.264610528945923,0.07465088367462158
1667255127722750700,5.828750732421875,9.387763977050781,2.2000012397766113,0.09472119808197021
1667255127727709200,5.833709228515625,9.515806198120117,2.134509801864624,0.14390289783477783
1667255127732668000,5.83866796875,9.68687915802002,2.0539729595184326,0.18420183658599854
1667255127737626400,5.84362646484375,9.836284637451172,1.9622812271118164,0.23512351512908936
1667255127742585000,5.848585205078125,10.02113151550293,1.8748458623886108,0.28264927864074707
1667255127747543600,5.85354345703125,10.187485694885254,1.7894779443740845,0.32342028617858887
1667255127752502300,5.858502197265625,10.367420196533203,1.6786150932312012,0.38998162746429443
1667255127757460700,5.863460693359375,10.547609329223633,1.5447487831115723,0.44795703887939453
1667255127762419200,5.868419189453125,10.73265266418457,1.4284453392028809,0.49397921562194824
1667255127767378000,5.8733779296875,10.908018112182617,1.2625480890274048,0.5544461011886597
1667255127772336400,5.87833642578125,11.072418212890625,1.0996921062469482,0.6031126976013184
1667255127777294800,5.883294921875,11.225748062133789,0.9361424446105957,0.6602749824523926
1667255127782253600,5.888253662109375,11.365507125854492,0.7477078437805176,0.7126437425613403
1667255127787212300,5.89321240234375,11.461796760559082,0.5557659864425659,0.7395414113998413
1667255127792170800,5.898170654296875,11.550488471984863,0.3684929609298706,0.7798988819122314
1667255127797129200,5.903129150390625,11.58381462097168,0.18453454971313477,0.8066433668136597
1667255127802088000,5.908087890625,11.603663444519043,0.01092386245727539,0.840618371963501
1667255127807046400,5.91304638671875,11.60051441192627,-0.17874670028686523,0.8571149110794067
1667255127812004900,5.9180048828125,11.606636047363281,-0.358431339263916,0.8734583854675293
1667255127816963600,5.922963623046875,11.631583213806152,-0.5090023279190063,0.9082385301589966
1667255127821922000,5.927922119140625,11.666934967041016,-0.7011765241622925,0.9275989532470703
1667255127826880800,5.932880859375,11.717427253723145,-0.8490616083145142,0.9300224781036377
1667255127831839200,5.937839111328125,11.804515838623047,-1.0209217071533203,0.9524872303009033
1667255127836798000,5.9427978515625,11.867182731628418,-1.1977617740631104,0.9829115867614746
1667255127841756400,5.94775634765625,11.959196090698242,-1.3714277744293213,0.9986687898635864
1667255127846715000,5.95271484375,12.054200172424316,-1.552781581878662,1.0155811309814453
1667255127851673600,5.957673583984375,12.158127784729004,-1.7612501382827759,1.0627244710922241
1667255127856632000,5.962632080078125,12.286486625671387,-1.957602858543396,1.0915281772613525
1667255127861590800,5.9675908203125,12.406967163085938,-2.1671230792999268,1.1218421459197998
1667255127866549200,5.97254931640625,12.574564933776855,-2.398470640182495,1.1540392637252808
1667255127871508000,5.977508056640625,12.7031831741333,-2.63403058052063,1.1927160024642944
1667255127876466400,5.982466552734375,12.653109550476074,-2.8355562686920166,1.2431867122650146
1667255127881425000,5.9874248046875,12.492745399475098,-3.0487115383148193,1.2557055950164795
1667255127886383600,5.992383544921875,12.227110862731934,-3.2509005069732666,1.2435312271118164
1667255127891342000,5.997342041015625,11.918553352355957,-3.427792549133301,1.2417957782745361
1667255127896300800,6.00230078125,11.735710144042969,-3.6153793334960938,1.266425371170044
1667255127901259300,6.00725927734375,11.566287994384766,-3.8099746704101562,1.2732782363891602
1667255127906217700,6.0122177734375,11.3231782913208,-3.9058470726013184,1.2500660419464111
1667255127911176400,6.017176513671875,11.251518249511719,-3.965996265411377,1.2554279565811157
1667255127916135000,6.022135009765625,11.383421897888184,-4.065559387207031,1.269726276397705
1667255127921093600,6.02709375,11.559747695922852,-4.209109783172607,1.2795815467834473
1667255127926052000,6.032052001953125,11.637084007263184,-4.3499040603637695,1.2838754653930664
1667255127931010800,6.0370107421875,11.607207298278809,-4.490148544311523,1.3028548955917358
1667255127935969300,6.04196923828125,11.439189910888672,-4.602255344390869,1.3044612407684326
1667255127940927700,6.046927734375,11.191765785217285,-4.71242618560791,1.290130615234375
1667255127945886500,6.051886474609375,10.903260231018066,-4.849172115325928,1.270920753479004
1667255127950845000,6.056844970703125,10.69556713104248,-4.968011856079102,1.252032995223999
1667255127955803600,6.0618037109375,10.608053207397461,-5.100072383880615,1.2539384365081787
1667255127960762000,6.06676220703125,10.71110725402832,-5.263348579406738,1.2807700634002686
1667255127965720800,6.071720947265625,10.95187759399414,-5.4265618324279785,1.3199938535690308
1667255127970679300,6.07667919921875,11.119943618774414,-5.6076788902282715,1.3512139320373535
1667255127975637800,6.0816376953125,11.125768661499023,-5.7611165046691895,1.3457684516906738
1667255127980596500,6.086596435546875,10.98025894165039,-5.875984191894531,1.3580950498580933
1667255127985555000,6.091554931640625,10.73978328704834,-5.996500015258789,1.3488023281097412
1667255127990513700,6.096513671875,10.391342163085938,-6.15003776550293,1.318562388420105
1667255127995472100,6.10147216796875,9.992379188537598,-6.271731376647949,1.2855117321014404
1667255128000430600,6.1064306640625,9.614463806152344,-6.343156814575195,1.2414569854736328
1667255128005389300,6.111389404296875,9.341024398803711,-6.361533164978027,1.203749418258667
1667255128010347800,6.11634765625,9.267282485961914,-6.408933639526367,1.180363416671753
1667255128015306500,6.121306396484375,9.35215950012207,-6.46112060546875,1.1699638366699219
1667255128020265000,6.126264892578125,9.487696647644043,-6.510674953460693,1.1812034845352173
1667255128025223700,6.1312236328125,9.570894241333008,-6.572989463806152,1.1856095790863037
1667255128030182100,6.13618212890625,9.504746437072754,-6.628637313842773,1.1514068841934204
1667255128035140600,6.141140625,9.304840087890625,-6.707484722137451,1.1447203159332275
1667255128040099300,6.146099365234375,9.002196311950684,-6.747204780578613,1.1143853664398193
1667255128045057800,6.151057861328125,8.691059112548828,-6.804967880249023,1.0749917030334473
1667255128050016500,6.1560166015625,8.456254959106445,-6.879755973815918,1.055704116821289
1667255128054975000,6.16097509765625,8.320149421691895,-6.958243370056152,1.04006826877594
1667255128059933700,6.16593359375,8.274125099182129,-7.045236110687256,1.0366027355194092
1667255128064892200,6.17089208984375,8.29414176940918,-7.149225234985352,1.020147681236267
1667255128069851000,6.175850830078125,8.304697036743164,-7.254663467407227,1.0135259628295898
1667255128074809300,6.180809326171875,8.280587196350098,-7.3281145095825195,1.0074143409729004
1667255128079767800,6.185767822265625,8.215778350830078,-7.401947021484375,0.9878216981887817
1667255128084726500,6.1907265625,8.062520027160645,-7.497801780700684,0.9652792811393738
1667255128089685000,6.19568505859375,7.8305158615112305,-7.597896575927734,0.9274203777313232
1667255128094643700,6.200643798828125,7.534215927124023,-7.714273929595947,0.8807907104492188
1667255128099602200,6.205602294921875,7.184316158294678,-7.779922008514404,0.8332691192626953
