time,seconds_elapsed,z,y,x
1667255121927415300,0.033415283203125,0.028787001967430115,-0.6483566164970398,0.4503600597381592
1667255121929894700,0.035894775390625,0.02756527252495289,-0.6300306916236877,0.4344775676727295
1667255121932374000,0.0383740234375,0.029397867619991302,-0.604374349117279,0.41676250100135803
1667255121934853000,0.04085302734375,0.031230462715029716,-0.5726093649864197,0.39965829253196716
1667255121937332500,0.04333251953125,0.03611737862229347,-0.5371792316436768,0.378888875246048
1667255121939811600,0.0458115234375,0.04039343446493149,-0.5078576803207397,0.3568977415561676
1667255121942291000,0.048291015625,0.04650207981467247,-0.4797579348087311,0.3324631452560425
1667255121944770300,0.050770263671875,0.050778135657310486,-0.45654505491256714,0.304974228143692
1667255121947249400,0.05324951171875,0.057497646659612656,-0.4369973838329315,0.27687445282936096
1667255121949728800,0.055728759765625,0.06299543380737305,-0.42050403356552124,0.24266603589057922
1667255121952208000,0.058207763671875,0.06910407543182373,-0.4058432877063751,0.21395538747310638
1667255121954687200,0.060687255859375,0.07948877662420273,-0.4021781086921692,0.18463388085365295
1667255121957166600,0.06316650390625,0.09170607477426529,-0.4015672206878662,0.15775582194328308
1667255121959645700,0.065645751953125,0.10331250727176666,-0.39973464608192444,0.13393209874629974
1667255121962125000,0.068125,0.11491893976926804,-0.3979020416736603,0.11255183815956116
1667255121964604400,0.0706044921875,0.12163844704627991,-0.39484772086143494,0.09544762223958969
1667255121967083500,0.07308349609375,0.12286017835140228,-0.39362600445747375,0.0795651376247406
1667255121969563000,0.07556298828125,0.11491893976926804,-0.3966803252696991,0.0642935186624527
1667255121972042200,0.078042236328125,0.09842558950185776,-0.4082867503166199,0.04841103404760361
1667255121974521300,0.080521240234375,0.08315397053956985,-0.4376082420349121,0.03130681812763214
1667255121977000700,0.083000732421875,0.06727148592472076,-0.4736492931842804,0.01359174121171236
1667255121979479800,0.085479736328125,0.04589121788740158,-0.5115228891372681,-0.004734201822429895
1667255121981959200,0.087959228515625,0.019013166427612305,-0.5493965148925781,-0.017562363296747208
1667255121984438500,0.0904384765625,-0.009086613543331623,-0.5836049318313599,-0.022449281066656113
1667255121986917600,0.092917724609375,-0.03779725730419159,-0.6110938787460327,-0.0206166859716177
1667255121989397000,0.09539697265625,-0.06589704006910324,-0.6373610496520996,-0.008399390615522861
1667255121991876400,0.09787646484375,-0.09033162891864777,-0.6648499369621277,0.01359174121171236
1667255121994355500,0.10035546875,-0.1141553521156311,-0.6898953914642334,0.04230238497257233
1667255121996834800,0.102834716796875,-0.13797907531261444,-0.7143300175666809,0.07834340631961823
1667255121999314000,0.10531396484375,-0.15874847769737244,-0.7314342260360718,0.1204930767416954
1667255122001793300,0.107793212890625,-0.17829616367816925,-0.741818904876709,0.16447533667087555
1667255122004272600,0.110272705078125,-0.19845469295978546,-0.7460949420928955,0.21151192486286163
1667255122006751700,0.112751708984375,-0.21922409534454346,-0.7430406212806702,0.2548833191394806
1667255122009231000,0.115231201171875,-0.23938263952732086,-0.7314342260360718,0.2952004075050354
1667255122011710200,0.117710205078125,-0.25465425848960876,-0.7131083011627197,0.33429574966430664
1667255122014189600,0.120189453125,-0.26564982533454895,-0.6923388838768005,0.3678933084011078
1667255122016669000,0.1226689453125,-0.2735910713672638,-0.6666825413703918,0.39965829253196716
1667255122019148000,0.12514794921875,-0.27542364597320557,-0.639804482460022,0.42959064245224
1667255122021627400,0.12762744140625,-0.27053675055503845,-0.6135373115539551,0.4540252387523651
1667255122024106500,0.1301064453125,-0.2632063627243042,-0.5915461778640747,0.47174033522605896
1667255122026585900,0.1325859375,-0.252210795879364,-0.5732202529907227,0.4894554018974304
1667255122029065200,0.135065185546875,-0.23877176642417908,-0.5628355145454407,0.502894401550293
1667255122031544300,0.13754443359375,-0.22655446827411652,-0.5585594773292542,0.5114465355873108
1667255122034023700,0.140023681640625,-0.212504580616951,-0.5591703653335571,0.5206094980239868
1667255122036503000,0.1425029296875,-0.19723296165466309,-0.565889835357666,0.5254964232444763
1667255122038982100,0.144982177734375,-0.18318307399749756,-0.5823832154273987,0.5273290276527405
1667255122041461500,0.14746142578125,-0.16791145503520966,-0.6031526327133179,0.5285507440567017
1667255122043940600,0.149940673828125,-0.14775292575359344,-0.630641520023346,0.5279398560523987
1667255122046420000,0.152419921875,-0.12270746380090714,-0.6660717129707336,0.522442102432251
1667255122048899300,0.1548994140625,-0.0939968153834343,-0.7076104879379272,0.5181660652160645
1667255122051378400,0.15737841796875,-0.06589704006910324,-0.7564796805381775,0.5157225728034973
1667255122053857800,0.15985791015625,-0.04024071618914604,-0.8102357983589172,0.5102248191833496
1667255122056337000,0.1623369140625,-0.016416991129517555,-0.8682679533958435,0.5096139311790466
1667255122058816300,0.164816162109375,0.006185005884617567,-0.9238566160202026,0.5114465355873108
1667255122061295600,0.167295654296875,0.02756527252495289,-0.9806670546531677,0.5163334608078003
1667255122063774700,0.169774658203125,0.047723811119794846,-1.0362557172775269,0.5267181396484375
1667255122066254000,0.172254150390625,0.06238456442952156,-1.0942878723144531,0.5352702736854553
1667255122068733200,0.174733154296875,0.07521272450685501,-1.1559852361679077,0.5438223481178284
1667255122071212500,0.177212646484375,0.08743002265691757,-1.217071771621704,0.5529853701591492
1667255122073692000,0.17969189453125,0.09537126123905182,-1.2732713222503662,0.5578722357749939
1667255122076171000,0.1821708984375,0.09781472384929657,-1.3203078508377075,0.560315728187561
1667255122078650400,0.184650390625,0.09170607477426529,-1.3575706481933594,0.5621483325958252
1667255122081129700,0.187129638671875,0.08376483619213104,-1.3783400058746338,0.5529853701591492
1667255122083608800,0.18960888671875,0.06971494108438492,-1.3826160430908203,0.5444332361221313
1667255122086088200,0.192088134765625,0.054443322122097015,-1.371620535850525,0.5303833484649658
1667255122088567300,0.1945673828125,0.03672824427485466,-1.3496294021606445,0.5151117444038391
1667255122091046700,0.197046630859375,0.019624030217528343,-1.3190860748291016,0.502894401550293
1667255122093526000,0.199526123046875,0.004963276442140341,-1.2763255834579468,0.4864010810852051
1667255122096005000,0.202005126953125,-0.01030834298580885,-1.2219586372375488,0.4699077308177948
1667255122098484500,0.204484375,-0.02741255611181259,-1.1529308557510376,0.45219266414642334
1667255122100963800,0.2069638671875,-0.042684175074100494,-1.0704641342163086,0.43142324686050415
1667255122103443000,0.20944287109375,-0.05673406645655632,-0.9837213754653931,0.4045451879501343
1667255122105922300,0.21192236328125,-0.06650790572166443,-0.8902590870857239,0.3733910918235779
1667255122108401400,0.2144013671875,-0.0732274129986763,-0.7955750226974487,0.33307403326034546
1667255122110880800,0.216880859375,-0.07567087560892105,-0.6953932046890259,0.28664830327033997
1667255122113360100,0.219360107421875,-0.07444914430379868,-0.5891027450561523,0.23716825246810913
1667255122115839200,0.221839111328125,-0.06956222653388977,-0.47731447219848633,0.1870773434638977
1667255122118318600,0.224318603515625,-0.06101011857390404,-0.3655261993408203,0.13820815086364746
1667255122120798000,0.2267978515625,-0.051847148686647415,-0.26106834411621094,0.08811724185943604
1667255122123277000,0.229277099609375,-0.04390590637922287,-0.16332997381687164,0.0386371985077858
1667255122125756400,0.23175634765625,-0.03657552972435951,-0.07536543905735016,-0.007177661173045635
1667255122128235500,0.234235595703125,-0.02802342176437378,0.00038179047987796366,-0.0487164668738842
1667255122130715000,0.23671484375,-0.019471315667033195,0.06146826967597008,-0.0847574844956398
1667255122133194200,0.2391943359375,-0.011530072428286076,0.1066722646355629,-0.1153007298707962
1667255122135673300,0.24167333984375,-0.00603228947147727,0.13477204740047455,-0.14034618437290192
1667255122138152700,0.244152587890625,-0.005421424750238657,0.14637847244739532,-0.15867212414741516
1667255122140631800,0.2466318359375,-0.007864884100854397,0.1427132785320282,-0.17883066833019257
1667255122143111200,0.249111083984375,-0.013973532244563103,0.12560907006263733,-0.19043709337711334
1667255122145590500,0.251590576171875,-0.02741255611181259,0.09750928729772568,-0.19532401859760284
1667255122148069600,0.254069580078125,-0.04940368980169296,0.0602465383708477,-0.19593487679958344
1667255122150549000,0.256549072265625,-0.07933606207370758,0.01259908638894558,-0.18860450387001038
1667255122153028000,0.259028076171875,-0.10987929999828339,-0.053374309092760086,-0.1721111536026001
1667255122155507500,0.261507568359375,-0.14164426922798157,-0.1303432732820511,-0.15073087811470032
1667255122157986800,0.26398681640625,-0.16730059683322906,-0.21464261412620544,-0.11346813291311264
1667255122160466000,0.2664658203125,-0.19051344692707062,-0.3038288652896881,-0.06765327602624893
1667255122162945300,0.2689453125,-0.21006113290786743,-0.3972911834716797,-0.014508038759231567
1667255122165424400,0.27142431640625,-0.22655446827411652,-0.493196964263916,0.049021899700164795
1667255122167903700,0.27390380859375,-0.24365869164466858,-0.586048424243927,0.11804962158203125
1667255122170383000,0.276383056640625,-0.25954118371009827,-0.6746237874031067,0.1870773434638977
1667255122172862200,0.2788623046875,-0.2735910713672638,-0.751592755317688,0.2603811025619507
1667255122175341600,0.281341552734375,-0.2894735336303711,-0.8193987607955933,0.3269653618335724
1667255122177821000,0.283821044921875,-0.3053560256958008,-0.8798743486404419,0.3923279047012329
1667255122180300000,0.286300048828125,-0.3249036967754364,-0.9305761456489563,0.449138343334198
1667255122182779400,0.288779296875,-0.34811657667160034,-0.9696714878082275,0.4967857897281647
1667255122185258500,0.291258544921875,-0.3749946057796478,-0.9977712631225586,0.5346593856811523
1667255122187737900,0.29373779296875,-0.4006509482860565,-1.0160971879959106,0.5627591609954834
1667255122190217200,0.29621728515625,-0.42447465658187866,-1.0252602100372314,0.5755873322486877
1667255122192696300,0.2986962890625,-0.44646579027175903,-1.0277036428451538,0.5761982202529907
1667255122195175700,0.30117578125,-0.46479174494743347,-1.020984172821045,0.5645917654037476
1667255122197655000,0.303655029296875,-0.48067423701286316,-1.0081559419631958,0.5426006317138672
1667255122200134100,0.306134033203125,-0.4928915202617645,-0.9916626214981079,0.5114465355873108
1667255122202613500,0.308613525390625,-0.5020545125007629,-0.9739475250244141,0.47296205163002014
1667255122205092900,0.3110927734375,-0.5099957585334778,-0.9507346749305725,0.42653632164001465
1667255122207572000,0.313572021484375,-0.5167152285575867,-0.926910936832428,0.38072147965431213
1667255122210051300,0.31605126953125,-0.5252673625946045,-0.9012545943260193,0.3324631452560425
1667255122212530400,0.318530517578125,-0.5332086086273193,-0.8755983114242554,0.28848087787628174
1667255122215009800,0.321009765625,-0.5448150038719177,-0.8487202525138855,0.2444986253976822
1667255122217489200,0.3234892578125,-0.5588648915290833,-0.8218421936035156,0.20173808932304382
1667255122219968300,0.32596826171875,-0.5753582715988159,-0.7980184555053711,0.16325360536575317
1667255122222447600,0.328447509765625,-0.593684196472168,-0.7760273218154907,0.12415826320648193
1667255122224926700,0.3309267578125,-0.61201012134552,-0.7589231133460999,0.08811724185943604
1667255122227406000,0.333406005859375,-0.6297252178192139,-0.7460949420928955,0.05635227635502815
1667255122229885400,0.335885498046875,-0.6492729187011719,-0.741818904876709,0.02825249545276165
1667255122232364500,0.338364501953125,-0.6675988435745239,-0.7399863004684448,0.0013744457392022014
1667255122234844000,0.340843994140625,-0.6840922236442566,-0.7467058300971985,-0.0206166859716177
1667255122237323000,0.343322998046875,-0.7005855441093445,-0.7534253597259521,-0.04260781779885292
1667255122239802400,0.34580224609375,-0.7115811109542847,-0.7601448893547058,-0.05971203371882439
1667255122242281700,0.34828173828125,-0.7195223569869995,-0.7668643593788147,-0.07009673118591309
1667255122244760800,0.3507607421875,-0.724409282207489,-0.7723621726036072,-0.08292489498853683
1667255122247240200,0.353240234375,-0.7274636030197144,-0.7790816426277161,-0.0896444097161293
1667255122249719300,0.35571923828125,-0.7262418866157532,-0.7858011722564697,-0.09330959618091583
1667255122252198700,0.35819873046875,-0.723798394203186,-0.7931315302848816,-0.09819651395082474
1667255122254678000,0.360677978515625,-0.7207440733909607,-0.8010727763175964,-0.1000291109085083
1667255122257157000,0.3631572265625,-0.714024543762207,-0.8090140223503113,-0.10308343172073364
1667255122259636500,0.365636474609375,-0.705472469329834,-0.8181769847869873,-0.1049160286784172
1667255122262115800,0.36811572265625,-0.6969203352928162,-0.8297834396362305,-0.10430516302585602
1667255122264595000,0.370594970703125,-0.685924768447876,-0.8462768197059631,-0.1055268943309784
1667255122267074300,0.37307421875,-0.6730966567993164,-0.862159252166748,-0.1055268943309784
1667255122269553400,0.375553466796875,-0.6590467095375061,-0.8768200278282166,-0.1055268943309784
1667255122272032800,0.37803271484375,-0.6425533890724182,-0.8914808034896851,-0.10735948383808136
1667255122274512100,0.38051220703125,-0.6242274641990662,-0.9006437659263611,-0.1104138121008873
1667255122276991200,0.3829912109375,-0.6059014797210693,-0.9134719371795654,-0.1104138121008873
1667255122279470600,0.385470703125,-0.5900190472602844,-0.9250783324241638,-0.11346813291311264
1667255122281949700,0.38794970703125,-0.5741365551948547,-0.936073899269104,-0.12018764764070511
1667255122284429000,0.390428955078125,-0.5576431751251221,-0.9513455629348755,-0.12385283410549164
1667255122286908400,0.392908447265625,-0.5442041754722595,-0.9684497714042664,-0.12812888622283936
1667255122289387500,0.395387451171875,-0.5307651162147522,-0.9849430918693542,-0.13729186356067657
1667255122291867000,0.397866943359375,-0.5161044001579285,-1.0008255243301392,-0.14523309469223022
1667255122294346200,0.40034619140625,-0.4996110200881958,-1.0173189640045166,-0.15378521382808685
1667255122296825300,0.402825439453125,-0.4831176698207855,-1.0350340604782104,-0.16355904936790466
1667255122299304700,0.4053046875,-0.46906778216362,-1.04786217212677,-0.16966769099235535
1667255122301783800,0.40778369140625,-0.4525744318962097,-1.0631338357925415,-0.17516547441482544
1667255122304263200,0.41026318359375,-0.44096800684928894,-1.0765727758407593,-0.1818849891424179
1667255122306742500,0.412742431640625,-0.428139865398407,-1.093677043914795,-0.18493930995464325
1667255122309221600,0.4152216796875,-0.41470083594322205,-1.115057349205017,-0.1879936307668686
1667255122311701000,0.417700927734375,-0.4006509482860565,-1.1382701396942139,-0.19165882468223572
1667255122314180400,0.420180419921875,-0.38354671001434326,-1.1645373106002808,-0.19654574990272522
1667255122316659500,0.422659423828125,-0.367053359746933,-1.197524070739746,-0.2026543915271759
1667255122319138800,0.425138916015625,-0.3505600392818451,-1.2372303009033203,-0.2124282270669937
1667255122321618000,0.427617919921875,-0.335288405418396,-1.2751039266586304,-0.2228129357099533
1667255122324097300,0.43009716796875,-0.3194059133529663,-1.3068687915802002,-0.2393062710762024
1667255122326576600,0.43257666015625,-0.30169084668159485,-1.3331360816955566,-0.2533561587333679
1667255122329055700,0.4350556640625,-0.2888626754283905,-1.3545162677764893,-0.2741255760192871
1667255122331535000,0.43753515625,-0.2772562503814697,-1.3679553270339966,-0.2955058515071869
1667255122334014200,0.44001416015625,-0.2699258625507355,-1.3728421926498413,-0.31932955980300903
1667255122336493600,0.44249365234375,-0.2680932879447937,-1.3685661554336548,-0.3468184769153595
1667255122338973000,0.444972900390625,-0.2699258625507355,-1.352072834968567,-0.3773617148399353
1667255122341452000,0.4474521484375,-0.2784779667854309,-1.324583888053894,-0.4079049527645111
1667255122343931400,0.449931396484375,-0.29130613803863525,-1.2824342250823975,-0.4390590488910675
1667255122346410800,0.45241064453125,-0.3090212345123291,-1.2250128984451294,-0.46715885400772095
1667255122348889900,0.454889892578125,-0.32795801758766174,-1.1517091989517212,-0.4970912039279938
1667255122351369200,0.457369140625,-0.3493382930755615,-1.0704641342163086,-0.5245801210403442
1667255122353848300,0.459848388671875,-0.3719402849674225,-0.9824996590614319,-0.5508472919464111
1667255122356327700,0.46232763671875,-0.39393141865730286,-0.8908699154853821,-0.5765036344528198
1667255122358807000,0.46480712890625,-0.41408994793891907,-0.8010727763175964,-0.6015490889549255
1667255122361286100,0.4672861328125,-0.4330267608165741,-0.7167734503746033,-0.6235402226448059
1667255122363765500,0.469765625,-0.44646579027175903,-0.6379718780517578,-0.6443096399307251
1667255122366244600,0.47224462890625,-0.45562875270843506,-0.5695550441741943,-0.660802960395813
1667255122368724000,0.474723876953125,-0.4574613571166992,-0.5096902847290039,-0.6736311316490173
1667255122371203300,0.477203369140625,-0.4537961781024933,-0.46143198013305664,-0.6846266984939575
1667255122373682400,0.479682373046875,-0.44585493206977844,-0.4284452795982361,-0.6937896609306335
1667255122376161800,0.482161865234375,-0.4324159026145935,-0.40950846672058105,-0.7053961157798767
1667255122378641000,0.484640869140625,-0.4122573733329773,-0.39851289987564087,-0.7145590782165527
1667255122381120300,0.487120361328125,-0.3908770978450775,-0.3979020416736603,-0.7249437570571899
1667255122383599600,0.489599609375,-0.367053359746933,-0.40950846672058105,-0.734106719493866
1667255122386078700,0.49207861328125,-0.34322965145111084,-0.43088874220848083,-0.7377719283103943
1667255122388558000,0.49455810546875,-0.3236819803714752,-0.45532333850860596,-0.7420479655265808
1667255122391037400,0.497037353515625,-0.3047451674938202,-0.48708829283714294,-0.7359393239021301
1667255122393516500,0.4995166015625,-0.29069527983665466,-0.5219075679779053,-0.7267763614654541
1667255122395996000,0.501995849609375,-0.283975750207901,-0.5536725521087646,-0.7139481902122498
1667255122398475000,0.50447509765625,-0.2790888547897339,-0.5793288946151733,-0.6956222653388977
1667255122400954400,0.506954345703125,-0.28031057119369507,-0.6031526327133179,-0.6760746240615845
1667255122403433700,0.509433837890625,-0.2778671085834503,-0.6239219903945923,-0.651029109954834
1667255122405912800,0.511912841796875,-0.2778671085834503,-0.6410261988639832,-0.6229293346405029
1667255122408392200,0.51439208984375,-0.2772562503814697,-0.6562978625297546,-0.5917752385139465
1667255122410871600,0.51687158203125,-0.2772562503814697,-0.6703477501869202,-0.5606211423873901
1667255122413350700,0.5193505859375,-0.2723693251609802,-0.6813433170318604,-0.5288561582565308
1667255122415830000,0.521830078125,-0.2680932879447937,-0.6892845630645752,-0.4970912039279938
1667255122418309000,0.52430908203125,-0.26076290011405945,-0.6911171674728394,-0.46838057041168213
1667255122420788500,0.52678857421875,-0.252210795879364,-0.6898953914642334,-0.44150251150131226
1667255122423267800,0.529267822265625,-0.2375500351190567,-0.6819541454315186,-0.4189005196094513
1667255122425747000,0.531746826171875,-0.22044582664966583,-0.6709585785865784,-0.3981311321258545
1667255122428226300,0.534226318359375,-0.19967642426490784,-0.65935218334198,-0.38591381907463074
1667255122430705700,0.53670556640625,-0.17463096976280212,-0.6483566164970398,-0.3761399984359741
1667255122433184800,0.539184814453125,-0.1495855152606964,-0.6367501616477966,-0.37491825222969055
1667255122435664100,0.5416640625,-0.1245400533080101,-0.6233111619949341,-0.37858346104621887
1667255122438143200,0.544143310546875,-0.10132719576358795,-0.6074286699295044,-0.38957902789115906
1667255122440622600,0.54662255859375,-0.08239039033651352,-0.5866592526435852,-0.4066832363605499
1667255122443102000,0.54910205078125,-0.06467530876398087,-0.5683333277702332,-0.4353938698768616
1667255122445581000,0.5515810546875,-0.04940368980169296,-0.5463421940803528,-0.4738783538341522
1667255122448060400,0.554060302734375,-0.03779725730419159,-0.5249619483947754,-0.5160280466079712
1667255122450539500,0.55653955078125,-0.026801692321896553,-0.5048033595085144,-0.5722275972366333
1667255122453019000,0.559018798828125,-0.013973532244563103,-0.48647743463516235,-0.6308705806732178
1667255122455498200,0.561498291015625,0.004963276442140341,-0.474260151386261,-0.6968439817428589
1667255122457977300,0.563977294921875,0.025121813639998436,-0.4583776593208313,-0.7689260244369507
1667255122460456700,0.566456787109375,0.047723811119794846,-0.44493862986564636,-0.845894992351532
1667255122462935800,0.568935791015625,0.07521272450685501,-0.4363865256309509,-0.9265291690826416
1667255122465415200,0.571415283203125,0.10453423857688904,-0.4369973838329315,-1.0083850622177124
1667255122467894500,0.57389453125,0.13629920780658722,-0.44616037607192993,-1.0914626121520996
1667255122470373600,0.57637353515625,0.168675035238266,-0.46021026372909546,-1.1733185052871704
1667255122472853000,0.57885302734375,0.20166173577308655,-0.4797579348087311,-1.2551743984222412
1667255122475332000,0.58133203125,0.23587016761302948,-0.4956403970718384,-1.3327542543411255
1667255122477811500,0.5838115234375,0.26946771144866943,-0.5054142475128174,-1.4091123342514038
1667255122480290800,0.586290771484375,0.30367615818977356,-0.5139663815498352,-1.4763075113296509
1667255122482770000,0.58877001953125,0.3384954333305359,-0.5237401723861694,-1.5392265319824219
1667255122485249300,0.591249267578125,0.3696495592594147,-0.5237401723861694,-1.5960369110107422
1667255122487728600,0.593728759765625,0.40080365538597107,-0.5219075679779053,-1.6473495960235596
1667255122490207700,0.596207763671875,0.4301251769065857,-0.5139663815498352,-1.6943861246109009
1667255122492687000,0.59868701171875,0.45394888520240784,-0.502970814704895,-1.7316489219665527
1667255122495166200,0.601166259765625,0.4722748398780823,-0.4883100390434265,-1.7664681673049927
1667255122497645600,0.6036455078125,0.48327040672302246,-0.4724275469779968,-1.7921245098114014
1667255122500125000,0.606125,0.48876819014549255,-0.4522690176963806,-1.8147265911102295
1667255122502604000,0.60860400390625,0.4857138693332672,-0.42050403356552124,-1.8330525159835815
1667255122505083400,0.61108349609375,0.47838348150253296,-0.3759109079837799,-1.8458806276321411
1667255122507562800,0.613562744140625,0.46433359384536743,-0.3239873945713043,-1.8544327020645142
1667255122510041900,0.616041748046875,0.44722938537597656,-0.2726747691631317,-1.863595724105835
1667255122512521200,0.618521240234375,0.4246273934841156,-0.226859912276268,-1.863595724105835
1667255122515000300,0.621000244140625,0.40080365538597107,-0.18471023440361023,-1.8599305152893066
1667255122517479700,0.623479736328125,0.37514734268188477,-0.14805835485458374,-1.853821873664856
1667255122519959000,0.625958984375,0.3421606421470642,-0.11140646785497665,-1.8409937620162964
1667255122522438100,0.628438232421875,0.3067304790019989,-0.07658717036247253,-1.8238894939422607
1667255122524917500,0.63091748046875,0.2700785994529724,-0.037491824477910995,-1.8025091886520386
1667255122527396900,0.63339697265625,0.2352592945098877,0.0016035200096666813,-1.7768529653549194
1667255122529876000,0.6358759765625,0.20044000446796417,0.03764454275369644,-1.7493640184402466
1667255122532355300,0.638355224609375,0.1625663936138153,0.06879864633083344,-1.7200424671173096
1667255122534834400,0.64083447265625,0.12591449916362762,0.09506583213806152,-1.687666654586792
1667255122537313800,0.643313720703125,0.08559742569923401,0.11583523452281952,-1.652847409248352
1667255122539793200,0.645793212890625,0.044669486582279205,0.12805253267288208,-1.614973783493042
1667255122542272300,0.648272216796875,0.004352411720901728,0.13538290560245514,-1.575878381729126
1667255122544751600,0.650751708984375,-0.04146244749426842,0.13843722641468048,-1.5337287187576294
1667255122547230700,0.653230712890625,-0.08972076326608658,0.14088068902492523,-1.493411660194397
1667255122549710000,0.6557099609375,-0.13920080661773682,0.1378263682126999,-1.4500402212142944
1667255122552189400,0.658189453125,-0.18990258872509003,0.1219438835978508,-1.4078905582427979
1667255122554668500,0.66066845703125,-0.24121522903442383,0.09506583213806152,-1.365130066871643
1667255122557148000,0.66314794921875,-0.29130613803863525,0.06268999725580215,-1.3199260234832764
1667255122559627000,0.665626953125,-0.33895358443260193,0.020540328696370125,-1.2777763605117798
1667255122562106400,0.6681064453125,-0.3872119188308716,-0.03138317912817001,-1.235015869140625
1667255122564585700,0.670585693359375,-0.43424850702285767,-0.08452841639518738,-1.1910336017608643
1667255122567064800,0.67306494140625,-0.47090038657188416,-0.13828451931476593,-1.15132737159729
1667255122569544200,0.675544189453125,-0.5057196617126465,-0.1914297491312027,-1.107956051826477
1667255122572023300,0.678023193359375,-0.5307651162147522,-0.24396412074565887,-1.0682498216629028
1667255122574502700,0.680502685546875,-0.5442041754722595,-0.30260714888572693,-1.0279327630996704
1667255122576982000,0.68298193359375,-0.5460367798805237,-0.3600284159183502,-0.9918916821479797
1667255122579461000,0.685461181640625,-0.5429824590682983,-0.4174497127532959,-0.9595158696174622
1667255122581940500,0.6879404296875,-0.5319868922233582,-0.4687623679637909,-0.9259182810783386
1667255122584419800,0.690419921875,-0.5154935121536255,-0.5127446055412292,-0.8953750729560852
1667255122586899000,0.69289892578125,-0.4928915202617645,-0.5530617237091064,-0.8691078424453735
1667255122589378300,0.69537841796875,-0.4678460657596588,-0.5921570658683777,-0.845894992351532
1667255122591857400,0.697857421875,-0.43913543224334717,-0.6281980872154236,-0.8263473510742188
1667255122594336800,0.700336669921875,-0.41042476892471313,-0.6532435417175293,-0.8116865754127502
1667255122596816100,0.702816162109375,-0.37988153100013733,-0.6734020709991455,-0.8025236129760742
1667255122599295200,0.705295166015625,-0.3493382930755615,-0.687451958656311,-0.7988584041595459
1667255122601774600,0.707774658203125,-0.32795801758766174,-0.6929497122764587,-0.8006910085678101
1667255122604254000,0.71025390625,-0.3090212345123291,-0.6941714882850647,-0.8074105381965637
1667255122606733000,0.712733154296875,-0.29130613803863525,-0.6911171674728394,-0.8202387094497681
1667255122609212400,0.71521240234375,-0.2772562503814697,-0.6892845630645752,-0.8422298431396484
1667255122611691500,0.71769140625,-0.2644280791282654,-0.6898953914642334,-0.86544269323349
1667255122614171000,0.7201708984375,-0.25526511669158936,-0.6960040330886841,-0.8923207521438599
1667255122616650200,0.722650146484375,-0.2528216540813446,-0.7155517339706421,-0.9204205274581909
1667255122619129300,0.72512939453125,-0.2540434002876282,-0.7375428676605225,-0.947909414768219
1667255122621608700,0.727608642578125,-0.2570977210998535,-0.7570905089378357,-0.976620078086853
1667255122624088000,0.730088134765625,-0.2638172209262848,-0.7821359634399414,-1.0004438161849976
1667255122626567200,0.732567138671875,-0.2687041461467743,-0.8084031939506531,-1.022434949874878
1667255122629046500,0.735046630859375,-0.2729802131652832,-0.8358920812606812,-1.041982650756836
1667255122631525600,0.737525634765625,-0.27664539217948914,-0.8652135729789734,-1.0529781579971313
1667255122634005000,0.7400048828125,-0.2796997129917145,-0.8963677287101746,-1.0639737844467163
1667255122636484400,0.742484375,-0.2784779667854309,-0.9201914072036743,-1.0731366872787476
1667255122638963500,0.74496337890625,-0.2735910713672638,-0.9397391080856323,-1.0804671049118042
1667255122641442800,0.74744287109375,-0.27053675055503845,-0.9605085253715515,-1.0841323137283325
1667255122643922000,0.749921875,-0.26626068353652954,-0.9782235622406006,-1.0896300077438354
1667255122646401300,0.7524013671875,-0.26503896713256836,-1.0075451135635376,-1.095127820968628
1667255122648880600,0.754880615234375,-0.26076290011405945,-1.0558034181594849,-1.106123447418213
1667255122651359700,0.75735986328125,-0.26015204191207886,-1.1144464015960693,-1.1171189546585083
1667255122653839000,0.759839111328125,-0.26137375831604004,-1.1627047061920166,-1.1287254095077515
1667255122656318500,0.762318359375,-0.26626068353652954,-1.1963022947311401,-1.1403318643569946
1667255122658797600,0.764797607421875,-0.27542364597320557,-1.222569465637207,-1.1562143564224243
1667255122661277000,0.76727685546875,-0.2882518172264099,-1.2360085248947144,-1.1714859008789062
1667255122663756000,0.769756103515625,-0.3047451674938202,-1.240895390510559,-1.1855357885360718
1667255122666235400,0.7722353515625,-0.32184937596321106,-1.2372303009033203,-1.1995856761932373
1667255122668714800,0.77471484375,-0.3401753306388855,-1.2256238460540771,-1.2130247354507446
1667255122671193900,0.77719384765625,-0.3609447181224823,-1.207297921180725,-1.2246311902999878
1667255122673673200,0.779673095703125,-0.38293585181236267,-1.1834741830825806,-1.2344050407409668
1667255122676152300,0.78215234375,-0.4067595899105072,-1.1602612733840942,-1.2454005479812622
1667255122678631700,0.784631591796875,-0.427528977394104,-1.1339941024780273,-1.2570070028305054
1667255122681111000,0.787111083984375,-0.4470766484737396,-1.1065051555633545,-1.2686134576797485
1667255122683590100,0.789590087890625,-0.46479174494743347,-1.0820705890655518,-1.2802199125289917
1667255122686069500,0.792069580078125,-0.48128509521484375,-1.057636022567749,-1.291215419769287
1667255122688548600,0.794548583984375,-0.4953349828720093,-1.036866545677185,-1.302211046218872
1667255122691028000,0.797028076171875,-0.5081631541252136,-1.0332014560699463,-1.3119847774505615
1667255122693507300,0.79950732421875,-0.5173261165618896,-1.0386991500854492,-1.3193151950836182
1667255122695986400,0.801986328125,-0.5240456461906433,-1.0503056049346924,-1.3242021799087524
1667255122698465800,0.8044658203125,-0.5283216834068298,-1.0710750818252563,-1.328478217124939
1667255122700945200,0.806945068359375,-0.5270999670028687,-1.092455267906189,-1.3248130083084106
1667255122703424300,0.80942431640625,-0.5325977206230164,-1.1077269315719604,-1.3125957250595093
1667255122705903600,0.811903564453125,-0.5411498546600342,-1.1242202520370483,-1.2961024045944214
1667255122708382700,0.8143828125,-0.5503128170967102,-1.1364375352859497,-1.2704460620880127
1667255122710862000,0.816862060546875,-0.5637518167495728,-1.151098370552063,-1.2386810779571533
1667255122713341400,0.819341552734375,-0.5790234804153442,-1.1675916910171509,-1.1995856761932373
1667255122715820500,0.821820556640625,-0.5985711216926575,-1.1865284442901611,-1.1562143564224243
1667255122718300000,0.8242998046875,-0.6211731433868408,-1.1963022947311401,-1.106123447418213
1667255122720779300,0.826779296875,-0.6498837471008301,-1.197524070739746,-1.0523673295974731
1667255122723258400,0.82925830078125,-0.6822596192359924,-1.1889718770980835,-0.9955568909645081
1667255122725737700,0.83173779296875,-0.7164680361747742,-1.1767545938491821,-0.9375247359275818
1667255122728216800,0.834216796875,-0.7555633783340454,-1.1572070121765137,-0.8770490884780884
1667255122730696200,0.8366962890625,-0.7989347577095032,-1.131550669670105,-0.8135191798210144
1667255122733175600,0.839175537109375,-0.8441387414932251,-1.1058943271636963,-0.7548761367797852
1667255122735654700,0.841654541015625,-0.890564501285553,-1.0765727758407593,-0.6937896609306335
1667255122738134000,0.844134033203125,-0.9351575970649719,-1.04786217212677,-0.6339249014854431
1667255122740613400,0.84661328125,-0.9797507524490356,-1.0222058296203613,-0.577725350856781
1667255122743092500,0.849092529296875,-1.0237330198287964,-0.9989929795265198,-0.5233584046363831
1667255122745571800,0.85157177734375,-1.0664935111999512,-0.974558413028717,-0.47265663743019104
1667255122748051000,0.854051025390625,-1.1019237041473389,-0.9513455629348755,-0.42623090744018555
1667255122750530300,0.8565302734375,-1.1324669122695923,-0.927521824836731,-0.3828594982624054
1667255122753009700,0.859009765625,-1.1575124263763428,-0.8951459527015686,-0.3455967605113983
1667255122755488800,0.86148876953125,-1.1801143884658813,-0.8523854613304138,-0.3095557391643524
1667255122757968100,0.863968017578125,-1.1984403133392334,-0.7998510599136353,-0.27840161323547363
1667255122760447200,0.866447265625,-1.2118793725967407,-0.7412080764770508,-0.25091269612312317
1667255122762926600,0.868926513671875,-1.2234858274459839,-0.6788998246192932,-0.22586725652217865
1667255122765406000,0.871406005859375,-1.230816125869751,-0.6117047071456909,-0.20570871233940125
1667255122767885000,0.873885009765625,-1.235092282295227,-0.5426769852638245,-0.18921536207199097
1667255122770364400,0.876364501953125,-1.2369247674942017,-0.47609272599220276,-0.17577634751796722
1667255122772843500,0.878843505859375,-1.2381465435028076,-0.41500625014305115,-0.16600249707698822
1667255122775323000,0.881322998046875,-1.2381465435028076,-0.3618610203266144,-0.16050471365451813
1667255122777802200,0.88380224609375,-1.2357031106948853,-0.31787875294685364,-0.1568395346403122
1667255122780281300,0.88628125,-1.233870506286621,-0.28122687339782715,-0.15867212414741516
1667255122782760700,0.8887607421875,-1.230816125869751,-0.247629314661026,-0.1623373180627823
1667255122785239800,0.89123974609375,-1.2271510362625122,-0.21952952444553375,-0.16783510148525238
1667255122787719200,0.89371923828125,-1.2247074842453003,-0.19509494304656982,-0.17333288490772247
1667255122790198500,0.896198486328125,-1.2179880142211914,-0.17310380935668945,-0.17638720571994781
1667255122792677600,0.898677734375,-1.2131011486053467,-0.15294526517391205,-0.18127411603927612
1667255122795157000,0.901156982421875,-1.2100467681884766,-0.13584105670452118,-0.1879936307668686
1667255122797636400,0.90363623046875,-1.2014946937561035,-0.1242346242070198,-0.19471314549446106
1667255122800115500,0.906115478515625,-1.1904990673065186,-0.12056943774223328,-0.20143266022205353
1667255122802594800,0.9085947265625,-1.1795035600662231,-0.12301289290189743,-0.2124282270669937
1667255122805074000,0.911073974609375,-1.166675329208374,-0.12851068377494812,-0.22464552521705627
1667255122807553300,0.91355322265625,-1.1489602327346802,-0.1407279670238495,-0.24113887548446655
1667255122810032600,0.91603271484375,-1.131856083869934,-0.15966477990150452,-0.25763222575187683
1667255122812511700,0.91851171875,-1.1098649501800537,-0.18776455521583557,-0.2790125012397766
1667255122814991000,0.9209912109375,-1.0860412120819092,-0.21891866624355316,-0.301003634929657
1667255122817470500,0.923470458984375,-1.0603848695755005,-0.2525162398815155,-0.3266599476337433
1667255122819949600,0.925949462890625,-1.0359503030776978,-0.28672465682029724,-0.3529271185398102
1667255122822429000,0.928428955078125,-1.008461356163025,-0.32154396176338196,-0.37919431924819946
1667255122824908000,0.930907958984375,-0.9852485060691833,-0.35391977429389954,-0.40607234835624695
1667255122827387400,0.933387451171875,-0.9608139395713806,-0.3850739002227783,-0.434783011674881
1667255122829866800,0.93586669921875,-0.9394336938858032,-0.4131736755371094,-0.46166107058525085
1667255122832345900,0.938345947265625,-0.9204968810081482,-0.44005170464515686,-0.4915934205055237
1667255122834825200,0.9408251953125,-0.899116575717926,-0.4638754427433014,-0.5258018374443054
1667255122837304600,0.9433046875,-0.880179762840271,-0.4779253304004669,-0.5618428587913513
1667255122839783700,0.94578369140625,-0.8630755543708801,-0.48647743463516235,-0.6003273725509644
1667255122842263000,0.948262939453125,-0.8526908755302429,-0.49075350165367126,-0.6394227147102356
1667255122844742100,0.9507421875,-0.8429170250892639,-0.4901426136493683,-0.6779071688652039
1667255122847221500,0.953221435546875,-0.8368083834648132,-0.48708829283714294,-0.7212786078453064
1667255122849700900,0.955700927734375,-0.8343649506568909,-0.48647743463516235,-0.7622065544128418
1667255122852180000,0.958179931640625,-0.8319214582443237,-0.48586657643318176,-0.7988584041595459
1667255122854659300,0.960659423828125,-0.8300888538360596,-0.48525571823120117,-0.8336777091026306
1667255122857138700,0.963138671875,-0.8288671374320984,-0.4828122556209564,-0.864220917224884
1667255122859617800,0.96561767578125,-0.825812816619873,-0.48220139741897583,-0.8898772597312927
1667255122862097200,0.96809716796875,-0.8215367794036865,-0.48097965121269226,-0.9106466770172119
1667255122864576300,0.970576171875,-0.8154281377792358,-0.4828122556209564,-0.9253074526786804
1667255122867055600,0.9730556640625,-0.8087086081504822,-0.4846448302268982,-0.9332486391067505
1667255122869535000,0.975534912109375,-0.798323929309845,-0.48647743463516235,-0.9363030195236206
1667255122872014000,0.97801416015625,-0.788550078868866,-0.4889208972454071,-0.9356921315193176
1667255122874493400,0.980493408203125,-0.7799979448318481,-0.493196964263916,-0.9265291690826416
1667255122876972500,0.98297265625,-0.7726675868034363,-0.49686214327812195,-0.9088140726089478
1667255122879452000,0.985451904296875,-0.7641154527664185,-0.5005273222923279,-0.8904881477355957
1667255122881931300,0.98793115234375,-0.7567850947380066,-0.502970814704895,-0.8672752976417542
1667255122884410400,0.990410400390625,-0.7445678114891052,-0.5048033595085144,-0.8422298431396484
1667255122886889700,0.9928896484375,-0.7366265654563904,-0.5066359639167786,-0.8135191798210144
1667255122889368800,0.995368896484375,-0.7299070358276367,-0.5084685683250427,-0.7835868000984192
1667255122891848200,0.99784814453125,-0.7231875658035278,-0.5078576803207397,-0.7499892115592957
1667255122894327600,1.00032763671875,-0.7201332449913025,-0.5048033595085144,-0.7145590782165527
1667255122896806700,1.002806640625,-0.7158571481704712,-0.502359926700592,-0.6766854524612427
1667255122899286000,1.0052861328125,-0.7170788645744324,-0.5041925311088562,-0.6375901103019714
1667255122901765400,1.007765380859375,-0.7201332449913025,-0.5151880979537964,-0.5984947681427002
1667255122904244500,1.010244384765625,-0.7256309986114502,-0.5322923064231873,-0.5581777095794678
1667255122906723800,1.012723876953125,-0.7299070358276367,-0.5579485893249512,-0.5184714794158936
1667255122909203000,1.015202880859375,-0.7366265654563904,-0.5884918570518494,-0.4805978536605835
1667255122911682300,1.017682373046875,-0.7470112442970276,-0.6227002739906311,-0.4445568323135376
1667255122914161700,1.02016162109375,-0.7604503035545349,-0.6569086909294128,-0.41157013177871704
1667255122916640800,1.022640869140625,-0.7769436240196228,-0.6960040330886841,-0.3828594982624054
1667255122919120100,1.0251201171875,-0.7964913249015808,-0.7369319796562195,-0.35414886474609375
1667255122921599200,1.02759912109375,-0.816038966178894,-0.780303418636322,-0.32971426844596863
1667255122924078600,1.03007861328125,-0.835586667060852,-0.8267291188240051,-0.30711227655410767
1667255122926558000,1.032557861328125,-0.8539125919342041,-0.8737657070159912,-0.29184064269065857
1667255122929037000,1.035037109375,-0.8728494048118591,-0.9214131832122803,-0.2753472924232483
1667255122931516400,1.037516357421875,-0.8850666880607605,-0.9702823162078857,-0.2655734717845917
1667255122933995800,1.039995849609375,-0.8966731429100037,-1.0148755311965942,-0.258853942155838
1667255122936475000,1.042474853515625,-0.9046143889427185,-1.056414246559143,-0.25213444232940674
1667255122938954200,1.044954345703125,-0.908890426158905,-1.093677043914795,-0.25213444232940674
1667255122941433300,1.047433349609375,-0.9107230305671692,-1.1260528564453125,-0.2545779049396515
1667255122943912700,1.04991259765625,-0.9076687097549438,-1.1535418033599854,-0.2594648003578186
1667255122946392000,1.05239208984375,-0.8985057473182678,-1.1737003326416016,-0.2680169343948364
1667255122948871200,1.05487109375,-0.8875101804733276,-1.1914154291152954,-0.27717989683151245
1667255122951350500,1.0573505859375,-0.8697950839996338,-1.2134065628051758,-0.291229784488678
1667255122953830000,1.059829833984375,-0.845360517501831,-1.240895390510559,-0.3065013885498047
1667255122956309000,1.06230908203125,-0.8203150629997253,-1.2726603746414185,-0.3266599476337433
1667255122958788400,1.064788330078125,-0.7916043996810913,-1.305036187171936,-0.3480401933193207
1667255122961267500,1.067267333984375,-0.7598394155502319,-1.3319143056869507,-0.3712530732154846
1667255122963746800,1.069746826171875,-0.7311288118362427,-1.3545162677764893,-0.39507678151130676
1667255122966226200,1.07222607421875,-0.7024181485176086,-1.370398759841919,-0.42012226581573486
1667255122968705300,1.074705322265625,-0.6755400896072388,-1.380172610282898,-0.4494437575340271
1667255122971184600,1.0771845703125,-0.6504946351051331,-1.3868920803070068,-0.4793761372566223
1667255122973664000,1.0796640625,-0.630946934223175,-1.3917790651321411,-0.5117519497871399
1667255122976143000,1.08214306640625,-0.6144536137580872,-1.389946460723877,-0.5447386503219604
1667255122978622500,1.08462255859375,-0.5985711216926575,-1.378950834274292,-0.5765036344528198
1667255122981101600,1.0871015625,-0.583910346031189,-1.3587923049926758,-0.6052142977714539
1667255122983581000,1.089580810546875,-0.5674170255661011,-1.3221404552459717,-0.6314814686775208
1667255122986060300,1.092060302734375,-0.549091100692749,-1.2787690162658691,-0.6553052067756653
1667255122988539400,1.094539306640625,-0.5270999670028687,-1.2298998832702637,-0.6748528480529785
1667255122991018800,1.097018798828125,-0.4990001618862152,-1.1785871982574463,-0.689513623714447
1667255122993497900,1.099497802734375,-0.4684569239616394,-1.1266636848449707,-0.6968439817428589
1667255122995977200,1.101977294921875,-0.437302827835083,-1.0735185146331787,-0.6998983025550842
1667255122998456600,1.10445654296875,-0.4024835228919983,-1.0173189640045166,-0.6980656981468201
1667255123000935700,1.106935791015625,-0.37438374757766724,-0.955010712146759,-0.6864593029022217
1667255123003415000,1.1094150390625,-0.34384050965309143,-0.8890373110771179,-0.671187698841095
1667255123005894400,1.111894287109375,-0.3151298761367798,-0.8230639100074768,-0.6485856771469116
1667255123008373500,1.11437353515625,-0.28641921281814575,-0.7570905089378357,-0.6210967898368835
1667255123010852900,1.116852783203125,-0.26076290011405945,-0.6862302422523499,-0.5923861265182495
1667255123013332000,1.11933203125,-0.24121522903442383,-0.6135373115539551,-0.5551233887672424
1667255123015811300,1.121811279296875,-0.22411102056503296,-0.5451204776763916,-0.5129737257957458
1667255123018290700,1.124290771484375,-0.2173915058374405,-0.48220139741897583,-0.4689914286136627
1667255123020769800,1.126769775390625,-0.21372631192207336,-0.4278344213962555,-0.4182896614074707
1667255123023249200,1.129249267578125,-0.21861323714256287,-0.38324129581451416,-0.3657552897930145
1667255123025728300,1.131728271484375,-0.22899793088436127,-0.35330891609191895,-0.30894485116004944
1667255123028207600,1.13420751953125,-0.24365869164466858,-0.3349829614162445,-0.24724751710891724
1667255123030687000,1.13668701171875,-0.2644280791282654,-0.3294851779937744,-0.1818849891424179
1667255123033166000,1.139166015625,-0.2882518172264099,-0.3288743197917938,-0.11224640160799026
1667255123035645400,1.1416455078125,-0.31268641352653503,-0.3349829614162445,-0.0383317656815052
1667255123038124500,1.14412451171875,-0.3395644724369049,-0.34231334924697876,0.03741546720266342
1667255123040604000,1.14660400390625,-0.36277732253074646,-0.35391977429389954,0.11804962158203125
1667255123043083300,1.149083251953125,-0.38965538144111633,-0.3710239827632904,0.19929464161396027
1667255123045562400,1.151562255859375,-0.4122573733329773,-0.3966803252696991,0.27809619903564453
1667255123048041700,1.154041748046875,-0.4311941862106323,-0.4266127049922943,0.3575085997581482
1667255123050521000,1.15652099609375,-0.4482983946800232,-0.4626537263393402,0.43081238865852356
1667255123053000200,1.159000244140625,-0.4629591405391693,-0.5054142475128174,0.5022835731506348
1667255123055479600,1.1614794921875,-0.4745655655860901,-0.5536725521087646,0.5676460862159729
1667255123057958700,1.163958740234375,-0.48739373683929443,-0.6062069535255432,0.6262891292572021
1667255123060438000,1.16643798828125,-0.49716755747795105,-0.6599630117416382,0.6818777918815613
1667255123062917400,1.16891748046875,-0.5075522661209106,-0.7143300175666809,0.7289143800735474
1667255123065396500,1.171396484375,-0.5191587209701538,-0.7656426429748535,0.7716749310493469
1667255123067875800,1.173875732421875,-0.5313760042190552,-0.8102357983589172,0.8071050643920898
1667255123070355200,1.176355224609375,-0.5405389666557312,-0.8493311405181885,0.8370374441146851
1667255123072834300,1.178834228515625,-0.5509236454963684,-0.882317841053009,0.8608611822128296
1667255123075313700,1.181313720703125,-0.5600866675376892,-0.9091958403587341,0.8755219578742981
1667255123077792800,1.183792724609375,-0.5698604583740234,-0.9330195784568787,0.8852958083152771
1667255123080272100,1.186272216796875,-0.5753582715988159,-0.9501237869262695,0.8889609575271606
1667255123082751500,1.18875146484375,-0.5820778012275696,-0.9611193537712097,0.8846849203109741
1667255123085230600,1.191230712890625,-0.5863538384437561,-0.9629519581794739,0.8724676370620728
1667255123087710000,1.1937099609375,-0.5851321220397949,-0.9592867493629456,0.8559742569923401
1667255123090189300,1.196189208984375,-0.5802451968193054,-0.9501237869262695,0.8333722949028015
1667255123092668400,1.19866845703125,-0.5704713463783264,-0.9330195784568787,0.8058833479881287
1667255123095147800,1.201147705078125,-0.5545888543128967,-0.9067524075508118,0.7716749310493469
1667255123097627000,1.203626953125,-0.5344303250312805,-0.8701004981994629,0.7338013052940369
1667255123100106200,1.206106201171875,-0.5081631541252136,-0.8267291188240051,0.6934842467308044
1667255123102585600,1.208585693359375,-0.478841632604599,-0.7754164934158325,0.6488910913467407
1667255123105064700,1.211064697265625,-0.44524407386779785,-0.7198277711868286,0.6000219583511353
1667255123107544000,1.2135439453125,-0.40920305252075195,-0.6697368621826172,0.550541877746582
1667255123110023400,1.2160234375,-0.36888596415519714,-0.6263654828071594,0.49739664793014526
1667255123112502500,1.21850244140625,-0.3249036967754364,-0.5933787822723389,0.44730573892593384
1667255123114982000,1.22098193359375,-0.2796997129917145,-0.565889835357666,0.4021017551422119
1667255123117461000,1.2234609375,-0.2326631247997284,-0.5438987016677856,0.35873034596443176
1667255123119940400,1.2259404296875,-0.18929173052310944,-0.5298488140106201,0.3220784664154053
1667255123122419700,1.228419677734375,-0.14775292575359344,-0.5255727767944336,0.2903134822845459
1667255123124898800,1.23089892578125,-0.10865757614374161,-0.5286270976066589,0.263435423374176
1667255123127378200,1.233378173828125,-0.07444914430379868,-0.5396226644515991,0.24083344638347626
1667255123129857300,1.235857177734375,-0.042684175074100494,-0.55672687292099,0.22250749170780182
1667255123132336600,1.238336669921875,-0.016416991129517555,-0.5750528573989868,0.20479241013526917
1667255123134816000,1.24081591796875,0.00923932995647192,-0.5964331030845642,0.18890993297100067
1667255123137295000,1.243295166015625,0.028176138177514076,-0.6190351247787476,0.17486004531383514
1667255123139774500,1.2457744140625,0.04528035223484039,-0.640415370464325,0.16325360536575317
1667255123142253800,1.24825390625,0.05688678100705147,-0.6624065041542053,0.15347976982593536
1667255123144733000,1.25073291015625,0.06604975461959839,-0.6880627870559692,0.14248420298099518
1667255123147212300,1.25321240234375,0.07276926934719086,-0.7216603755950928,0.1314886510372162
1667255123149691400,1.25569140625,0.07826705276966095,-0.761366605758667,0.1204930767416954
1667255123152170800,1.258170654296875,0.0862082913517952,-0.8053488731384277,0.10766492038965225
1667255123154650000,1.260650146484375,0.09292780607938766,-0.8511636853218079,0.09544762223958969
1667255123157129200,1.263129150390625,0.09903645515441895,-0.8951459527015686,0.08323032408952713
1667255123159608600,1.265608642578125,0.10392337292432785,-0.9317978620529175,0.0691804364323616
1667255123162087700,1.268087646484375,0.10697769373655319,-0.9592867493629456,0.05635227635502815
1667255123164567000,1.270567138671875,0.11064288020133972,-0.9794453382492065,0.04230238497257233
1667255123167046400,1.27304638671875,0.11308634281158447,-0.9959386587142944,0.02764163166284561
1667255123169525500,1.275525390625,0.11308634281158447,-1.0069342851638794,0.01359174121171236
1667255123172004900,1.2780048828125,0.11247547715902328,-1.0148755311965942,-0.00045814859913662076
1667255123174484200,1.280484130859375,0.10575596243143082,-1.0222058296203613,-0.010842849500477314
1667255123176963300,1.28296337890625,0.09720385819673538,-1.0252602100372314,-0.018173227086663246
1667255123179442700,1.285442626953125,0.08254310488700867,-1.0258710384368896,-0.024281874299049377
1667255123181921800,1.287921875,0.06360629200935364,-1.018540620803833,-0.030390523374080658
1667255123184401200,1.290401123046875,0.041004300117492676,-1.003269076347351,-0.0334448479115963
1667255123186880500,1.292880615234375,0.014737112447619438,-0.9739475250244141,-0.03405570983886719
1667255123189359600,1.295359619140625,-0.013362666592001915,-0.9336304664611816,-0.034666575491428375
1667255123191839000,1.2978388671875,-0.042073313146829605,-0.8884264826774597,-0.03222311660647392
1667255123194318000,1.300318115234375,-0.07078395783901215,-0.8377246856689453,-0.027336198836565018
1667255123196797400,1.30279736328125,-0.09766200929880142,-0.7839685678482056,-0.024892739951610565
1667255123199276800,1.30527685546875,-0.12392919510602951,-0.7253255844116211,-0.017562363296747208
1667255123201756000,1.307755859375,-0.15141810476779938,-0.6642391085624695,-0.013286309316754341
1667255123204235300,1.3102353515625,-0.1764635592699051,-0.6013200283050537,-0.0102319847792387
1667255123206714600,1.312714599609375,-0.2015090137720108,-0.5292379856109619,-0.008399390615522861
1667255123209193700,1.31519384765625,-0.22533275187015533,-0.4534907341003418,-0.008399390615522861
1667255123211673000,1.317673095703125,-0.24915647506713867,-0.37285658717155457,-0.009010255336761475
1667255123214152200,1.320152099609375,-0.2699258625507355,-0.2897789776325226,-0.012675444595515728
1667255123216631600,1.322631591796875,-0.28580835461616516,-0.20914483070373535,-0.0206166859716177
1667255123219111000,1.32511083984375,-0.2980256676673889,-0.13706278800964355,-0.030390523374080658
1667255123221590000,1.327590087890625,-0.30107998847961426,-0.07108938694000244,-0.046883873641490936
1667255123224069400,1.3300693359375,-0.2998582422733307,-0.013668099418282509,-0.0639880821108818
1667255123226548700,1.332548828125,-0.2943604588508606,0.033979352563619614,-0.08903354406356812
1667255123229027800,1.33502783203125,-0.29069527983665466,0.07307469844818115,-0.11468986421823502
1667255123231507200,1.337507080078125,-0.28580835461616516,0.10850485414266586,-0.14462223649024963
1667255123233986600,1.339986572265625,-0.283975750207901,0.13965895771980286,-0.17821979522705078
1667255123236465700,1.342465576171875,-0.283975750207901,0.17142392694950104,-0.2136499583721161
1667255123238945000,1.344945068359375,-0.2882518172264099,0.1995237022638321,-0.2503018379211426
1667255123241424100,1.347424072265625,-0.2949713170528412,0.23067781329154968,-0.2863428592681885
1667255123243903500,1.349903564453125,-0.303523451089859,0.26366451382637024,-0.32360562682151794
1667255123246382800,1.3523828125,-0.31207555532455444,0.3009272515773773,-0.36025750637054443
1667255123248862000,1.354862060546875,-0.3236819803714752,0.3430769443511963,-0.39629852771759033
1667255123251341300,1.35734130859375,-0.33223408460617065,0.3888917863368988,-0.434783011674881
1667255123253820700,1.359820556640625,-0.34200790524482727,0.4298197329044342,-0.4696022868156433
1667255123256299800,1.3622998046875,-0.34750568866729736,0.4670824706554413,-0.504421591758728
1667255123258779100,1.364779052734375,-0.3517817556858063,0.5006800293922424,-0.5410735011100769
1667255123261258200,1.36725830078125,-0.3517817556858063,0.5361102223396301,-0.5740602016448975
1667255123263737600,1.369737548828125,-0.34750568866729736,0.5672643184661865,-0.606436014175415
1667255123266217000,1.372217041015625,-0.34261879324913025,0.6057487726211548,-0.6357575058937073
1667255123268696000,1.374696044921875,-0.34261879324913025,0.6827177405357361,-0.6571378111839294
1667255123271175400,1.377175537109375,-0.3505600392818451,0.7804561257362366,-0.6742420196533203
1667255123273654500,1.379654541015625,-0.36399903893470764,0.8623120188713074,-0.6968439817428589
1667255123276134000,1.3821337890625,-0.37927067279815674,0.9124029278755188,-0.7188351154327393
1667255123278613200,1.38461328125,-0.3963748812675476,0.95149827003479,-0.7408262491226196
1667255123281092400,1.38709228515625,-0.4159225523471832,0.98631751537323,-0.7652608752250671
1667255123283571700,1.38957177734375,-0.437302827835083,1.0107520818710327,-0.7927497625350952
1667255123286051000,1.392051025390625,-0.4574613571166992,1.0284671783447266,-0.817184329032898
1667255123288530200,1.3945302734375,-0.47578731179237366,1.035186767578125,-0.8403972387313843
1667255123291009500,1.397009521484375,-0.4947241246700287,1.0382410287857056,-0.8629992008209229
1667255123293488600,1.399488525390625,-0.5130500793457031,1.0302997827529907,-0.8862120509147644
1667255123295968000,1.401968017578125,-0.5307651162147522,1.008919596672058,-0.9045380353927612
1667255123298447400,1.404447265625,-0.5478693246841431,0.9741002321243286,-0.9210313558578491
1667255123300926500,1.406926513671875,-0.5661953091621399,0.9240093231201172,-0.9332486391067505
1667255123303405800,1.40940576171875,-0.5863538384437561,0.8678097724914551,-0.9424116611480713
1667255123305885200,1.41188525390625,-0.6071232557296753,0.8103885054588318,-0.9411898851394653
1667255123308364300,1.4143642578125,-0.6278926134109497,0.746858537197113,-0.9399681687355042
1667255123310843600,1.41684375,-0.651105523109436,0.6833286285400391,-0.9283617734909058
1667255123313322800,1.41932275390625,-0.6724857687950134,0.627129077911377,-0.9112575054168701
1667255123315802000,1.421802001953125,-0.6914225816726685,0.5739838480949402,-0.8892664313316345
1667255123318281500,1.424281494140625,-0.7128028273582458,0.5257254838943481,-0.8611665964126587
1667255123320760600,1.426760498046875,-0.734183132648468,0.48357582092285156,-0.8330668210983276
1667255123323240000,1.429239990234375,-0.7506764531135559,0.4450913369655609,-0.8025236129760742
1667255123325719000,1.431718994140625,-0.7653372287750244,0.40294167399406433,-0.7670934200286865
1667255123328198400,1.434198486328125,-0.7769436240196228,0.36506807804107666,-0.7359393239021301
1667255123330677800,1.436677734375,-0.7848848700523376,0.3216966688632965,-0.7041743993759155
1667255123333156900,1.439156982421875,-0.7897717952728271,0.2758817970752716,-0.6724094152450562
1667255123335636200,1.44163623046875,-0.788550078868866,0.22823435068130493,-0.6436987519264221
1667255123338115600,1.444115478515625,-0.7861065864562988,0.17631085216999054,-0.6180424690246582
1667255123340594700,1.4465947265625,-0.7763327956199646,0.1170569658279419,-0.5936078429222107
1667255123343074000,1.449073974609375,-0.7622829079627991,0.05719221383333206,-0.5697841048240662
1667255123345553200,1.45155322265625,-0.7445678114891052,-0.006948587018996477,-0.54962557554245
1667255123348032500,1.454032470703125,-0.7213549613952637,-0.07108938694000244,-0.5288561582565308
1667255123350511900,1.456511962890625,-0.6950877904891968,-0.1297324001789093,-0.5111411213874817
1667255123352991000,1.458990966796875,-0.6694314479827881,-0.17921245098114014,-0.495258629322052
1667255123355470300,1.46147021484375,-0.6437751054763794,-0.2176969349384308,-0.4812087416648865
1667255123357949400,1.463949462890625,-0.621783971786499,-0.24090979993343353,-0.47326749563217163
1667255123360428800,1.4664287109375,-0.6004037261009216,-0.25068363547325134,-0.4659371078014374
1667255123362908200,1.468908203125,-0.5796343088150024,-0.24640758335590363,-0.46166107058525085
1667255123365387300,1.47138720703125,-0.5558105707168579,-0.2323576956987381,-0.4653262495994568
1667255123367866600,1.47386669921875,-0.529543399810791,-0.21830779314041138,-0.46654796600341797
1667255123370346000,1.476345947265625,-0.5020545125007629,-0.2067013680934906,-0.4689914286136627
1667255123372825000,1.4788251953125,-0.4678460657596588,-0.20303617417812347,-0.47326749563217163
1667255123375304400,1.481304443359375,-0.4324159026145935,-0.20914483070373535,-0.4744892120361328
1667255123377783600,1.483783447265625,-0.39942920207977295,-0.2225838601589203,-0.4799869954586029
1667255123380263000,1.486262939453125,-0.36216646432876587,-0.24518585205078125,-0.4812087416648865
1667255123382742300,1.4887421875,-0.325514554977417,-0.2738964855670929,-0.48365217447280884
1667255123385221400,1.491221435546875,-0.29130613803863525,-0.30688318610191345,-0.48365217447280884
1667255123387700700,1.49370068359375,-0.2577085793018341,-0.3337612450122833,-0.4860956370830536
1667255123390180000,1.49618017578125,-0.2271653413772583,-0.3508654534816742,-0.48792824149131775
1667255123392659200,1.4986591796875,-0.2015090137720108,-0.3508654534816742,-0.49403688311576843
1667255123395138600,1.501138671875,-0.17402009665966034,-0.34292420744895935,-0.5019781589508057
1667255123397617700,1.50361767578125,-0.1508072465658188,-0.33192864060401917,-0.5111411213874817
1667255123400097000,1.506096923828125,-0.12881611287593842,-0.32337653636932373,-0.523969292640686
1667255123402576400,1.508576416015625,-0.10987929999828339,-0.32154396176338196,-0.539851725101471
1667255123405055500,1.511055419921875,-0.09827287495136261,-0.3252091407775879,-0.5551233887672424
1667255123407534800,1.513534912109375,-0.09460768103599548,-0.33253952860832214,-0.569173276424408
1667255123410014200,1.51601416015625,-0.09949459880590439,-0.34292420744895935,-0.5789470672607422
1667255123412493300,1.518493408203125,-0.10987929999828339,-0.35880669951438904,-0.5795579552650452
1667255123414972700,1.52097265625,-0.12576179206371307,-0.37346744537353516,-0.5771145224571228
1667255123417451800,1.52345166015625,-0.1398116797208786,-0.38996079564094543,-0.5648971796035767
1667255123419931100,1.52593115234375,-0.1556941568851471,-0.41378453373908997,-0.5471821427345276
1667255123422410500,1.528410400390625,-0.17157664895057678,-0.44493862986564636,-0.523969292640686
1667255123424889600,1.5308896484375,-0.18684826791286469,-0.48220139741897583,-0.4958694875240326
1667255123427369000,1.533368896484375,-0.20028728246688843,-0.5261836647987366,-0.46166107058525085
1667255123429848300,1.535848388671875,-0.2118937224149704,-0.5836049318313599,-0.4237874448299408
1667255123432327400,1.538327392578125,-0.22350014746189117,-0.6538543701171875,-0.38469210267066956
1667255123434806800,1.540806884765625,-0.23510658740997314,-0.7332668304443359,-0.33887723088264465
1667255123437286100,1.5432861328125,-0.24549128115177155,-0.8169552683830261,-0.2906189262866974
1667255123439765200,1.54576513671875,-0.25465425848960876,-0.9012545943260193,-0.2386954128742218
1667255123442244600,1.54824462890625,-0.261984646320343,-0.9873865842819214,-0.1824958473443985
1667255123444723700,1.5507236328125,-0.27175846695899963,-1.0722967386245728,-0.12751802802085876
1667255123447203000,1.553203125,-0.2790888547897339,-1.1553744077682495,-0.06887500733137131
1667255123449682400,1.555682373046875,-0.28703010082244873,-1.2274564504623413,-0.016340631991624832
1667255123452161500,1.55816162109375,-0.29680392146110535,-1.2903754711151123,0.03741546720266342
1667255123454641000,1.560640869140625,-0.30596688389778137,-1.3435207605361938,0.0899498388171196
1667255123457120300,1.563120361328125,-0.31635159254074097,-1.3881138563156128,0.1357647031545639
1667255123459599400,1.565599365234375,-0.3242928385734558,-1.4302635192871094,0.17913609743118286
1667255123462078700,1.56807861328125,-0.33345580101013184,-1.4730240106582642,0.22067490220069885
1667255123464557800,1.570557861328125,-0.3395644724369049,-1.520060658454895,0.25549420714378357
1667255123467037200,1.573037109375,-0.344451367855072,-1.5609885454177856,0.2897026240825653
1667255123469516500,1.5755166015625,-0.34872743487358093,-1.5933644771575928,0.3214675784111023
1667255123471995600,1.57799560546875,-0.3517817556858063,-1.6159664392471313,0.34834563732147217
1667255123474475000,1.58047509765625,-0.3560578227043152,-1.622075080871582,0.36972591280937195
1667255123476954400,1.582954345703125,-0.3603338599205017,-1.6104686260223389,0.388662725687027
1667255123479433500,1.58543359375,-0.3615556061267853,-1.5890883207321167,0.4033234715461731
1667255123481912800,1.587912841796875,-0.3609447181224823,-1.5640429258346558,0.4130973219871521
1667255123484392000,1.590391845703125,-0.35789039731025696,-1.5304453372955322,0.41676250100135803
1667255123486871300,1.592871337890625,-0.3511708974838257,-1.4937934875488281,0.41676250100135803
1667255123489350700,1.5953505859375,-0.34200790524482727,-1.454087257385254,0.41126471757888794
1667255123491829800,1.597829833984375,-0.3285689055919647,-1.4101049900054932,0.40149086713790894
1667255123494309000,1.60030908203125,-0.3132972717285156,-1.36062490940094,0.388051837682724
1667255123496788500,1.60278857421875,-0.3004691004753113,-1.3038145303726196,0.3685041666030884
1667255123499267600,1.605267578125,-0.2894735336303711,-1.2366193532943726,0.34345871210098267
1667255123501747000,1.607746826171875,-0.28214317560195923,-1.1590396165847778,0.31413722038269043
1667255123504226000,1.61022607421875,-0.2742019295692444,-1.0716859102249146,0.2738201320171356
1667255123506705400,1.612705322265625,-0.2632063627243042,-0.9763910174369812,0.22678354382514954
1667255123509184800,1.615184814453125,-0.2528216540813446,-0.8762091398239136,0.1718057245016098
1667255123511663900,1.617663818359375,-0.24426954984664917,-0.7735838890075684,0.10644318908452988
1667255123514143200,1.620143310546875,-0.23083053529262543,-0.668515145778656,0.03497200831770897
1667255123516622600,1.62262255859375,-0.22411102056503296,-0.5616137981414795,-0.04016435891389847
1667255123519101700,1.625101806640625,-0.2173915058374405,-0.4516581594944,-0.12202023714780807
1667255123521581000,1.6275810546875,-0.21311545372009277,-0.34658941626548767,-0.20387612283229828
1667255123524060200,1.63006005859375,-0.21006113290786743,-0.2531270980834961,-0.2863428592681885
1667255123526539500,1.63253955078125,-0.2070067971944809,-0.17737986147403717,-0.3675878942012787
1667255123529019000,1.635018798828125,-0.20028728246688843,-0.12118030339479446,-0.4451677203178406
1667255123531498000,1.637498046875,-0.1960112303495407,-0.0784197673201561,-0.514195442199707
1667255123533977300,1.639977294921875,-0.18684826791286469,-0.04298960790038109,-0.5746710300445557
1667255123536456700,1.642456787109375,-0.1813504844903946,-0.00755945174023509,-0.6229293346405029
1667255123538935800,1.644935791015625,-0.17707443237304688,0.0345902182161808,-0.6601921319961548
1667255123541415200,1.647415283203125,-0.1758527010679245,0.08284853398799896,-0.6870701313018799
1667255123543894300,1.649894287109375,-0.17707443237304688,0.1274416595697403,-0.7005091905593872
1667255123546373600,1.65237353515625,-0.17707443237304688,0.1634826809167862,-0.7047852277755737
1667255123548853000,1.65485302734375,-0.17829616367816925,0.1934150606393814,-0.6962331533432007
1667255123551332000,1.65733203125,-0.1758527010679245,0.21723878383636475,-0.6760746240615845
1667255123553811500,1.6598115234375,-0.17279838025569916,0.23251040279865265,-0.6491965651512146
1667255123556290800,1.662290771484375,-0.1703549176454544,0.2343430072069168,-0.6143772602081299
1667255123558770000,1.66477001953125,-0.16730059683322906,0.224569171667099,-0.5746710300445557
1667255123561249300,1.667249267578125,-0.16363540291786194,0.20502148568630219,-0.5306887626647949
1667255123563728400,1.669728271484375,-0.16363540291786194,0.1781434416770935,-0.4860956370830536
1667255123566207700,1.672207763671875,-0.16302454471588135,0.14698933064937592,-0.43600472807884216
1667255123568687000,1.67468701171875,-0.1599702090024948,0.10728313028812408,-0.383470356464386
1667255123571166200,1.677166259765625,-0.15325069427490234,0.06635518372058868,-0.3303251266479492
1667255123573645600,1.6796455078125,-0.14408773183822632,0.0193185992538929,-0.27779075503349304
1667255123576125000,1.682125,-0.13553562760353088,-0.027717988938093185,-0.2228129357099533
1667255123578604000,1.68460400390625,-0.12759438157081604,-0.07170025259256363,-0.16966769099235535
1667255123581083400,1.68708349609375,-0.1190422773361206,-0.11507165431976318,-0.11591159552335739
1667255123583562500,1.6895625,-0.11049016565084457,-0.15844304859638214,-0.06520981341600418
1667255123586041900,1.692041748046875,-0.10193806141614914,-0.20364704728126526,-0.01695149764418602
1667255123588521200,1.694521240234375,-0.09460768103599548,-0.25129449367523193,0.02764163166284561
1667255123591000300,1.697000244140625,-0.0884990319609642,-0.30077454447746277,0.06979130208492279
1667255123593479700,1.699479736328125,-0.08422297984361649,-0.35208719968795776,0.10766492038965225
1667255123595958800,1.701958740234375,-0.07994692772626877,-0.40034550428390503,0.1406516134738922
1667255123598438100,1.704438232421875,-0.07933606207370758,-0.4486038088798523,0.17058399319648743
1667255123600917500,1.70691748046875,-0.08239039033651352,-0.49747300148010254,0.1974620372056961
1667255123603396600,1.709396728515625,-0.08666644245386124,-0.5432878732681274,0.21945317089557648
1667255123605876000,1.7118759765625,-0.09094249457120895,-0.5921570658683777,0.23777911067008972
1667255123608355300,1.714355224609375,-0.0939968153834343,-0.6416370868682861,0.2548833191394806
1667255123610834400,1.71683447265625,-0.09644027799367905,-0.6911171674728394,0.2701549530029297
1667255123613313800,1.719313720703125,-0.09827287495136261,-0.741818904876709,0.2848156988620758
1667255123615793000,1.72179296875,-0.09827287495136261,-0.7961859107017517,0.29886558651924133
1667255123618272300,1.724272216796875,-0.09949459880590439,-0.8554397821426392,0.31291547417640686
1667255123620751600,1.726751708984375,-0.09827287495136261,-0.917747974395752,0.32818710803985596
1667255123623230700,1.729230712890625,-0.10132719576358795,-0.9824996590614319,0.3422369956970215
1667255123625710000,1.7317099609375,-0.1043815165758133,-1.0441969633102417,0.3605629503726959
1667255123628189400,1.734189453125,-0.10804671049118042,-1.1040617227554321,0.38011062145233154
1667255123630668500,1.73666845703125,-0.11476621776819229,-1.1590396165847778,0.4021017551422119
1667255123633148000,1.73914794921875,-0.1190422773361206,-1.212795615196228,0.42959064245224
1667255123635627300,1.741627197265625,-0.12331832945346832,-1.261664867401123,0.458301305770874
1667255123638106400,1.7441064453125,-0.12698352336883545,-1.306257963180542,0.49312058091163635
1667255123640585700,1.746585693359375,-0.12820523977279663,-1.3477967977523804,0.531605064868927
1667255123643064800,1.74906494140625,-0.129426971077919,-1.3850594758987427,0.5737547278404236
1667255123645544200,1.751544189453125,-0.12881611287593842,-1.414991855621338,0.6226239204406738
1667255123648023600,1.7540234375,-0.12698352336883545,-1.4314852952957153,0.6788234710693359
1667255123650502700,1.756502685546875,-0.12148573249578476,-1.4333178997039795,0.735023021697998
1667255123652982000,1.75898193359375,-0.11598794907331467,-1.4241548776626587,0.7961094975471497
1667255123655461400,1.76146142578125,-0.1092684343457222,-1.4003311395645142,0.8590285778045654
1667255123657940500,1.7639404296875,-0.09766200929880142,-1.3661227226257324,0.9231693744659424
1667255123660419800,1.766419921875,-0.08422297984361649,-1.3239730596542358,0.9818124175071716
1667255123662899000,1.76889892578125,-0.06528617441654205,-1.2775473594665527,1.039233684539795
1667255123665378300,1.77137841796875,-0.04696023091673851,-1.2317324876785278,1.08810293674469
1667255123667857700,1.773857666015625,-0.02496909722685814,-1.187750220298767,1.133306860923767
1667255123670336800,1.776336669921875,-0.0011453714687377214,-1.1480439901351929,1.1736239194869995
1667255123672816000,1.778816162109375,0.024510949850082397,-1.1101703643798828,1.2041672468185425
1667255123675295500,1.78129541015625,0.04955640435218811,-1.075961947441101,1.2304344177246094
1667255123677774600,1.783774658203125,0.06971494108438492,-1.0423643589019775,1.2481495141983032
1667255123680254000,1.78625390625,0.08743002265691757,-1.0105993747711182,1.2573124170303345
1667255123682733000,1.788733154296875,0.10514509677886963,-0.9855539798736572,1.2621994018554688
1667255123685212400,1.79121240234375,0.11614066362380981,-0.9690605998039246,1.2591450214385986
1667255123687691800,1.79369189453125,0.1222493126988411,-0.9629519581794739,1.2493711709976196
1667255123690171000,1.7961708984375,0.1222493126988411,-0.9635628461837769,1.2340996265411377
1667255123692650200,1.798650146484375,0.11797326058149338,-0.9727258086204529,1.2127193212509155
1667255123695129600,1.801129638671875,0.10758855938911438,-0.9861648082733154,1.1852303743362427
1667255123697608700,1.803608642578125,0.09170607477426529,-1.0063233375549316,1.1559088230133057
1667255123700088000,1.806088134765625,0.07399099320173264,-1.0338122844696045,1.1229221820831299
1667255123702567200,1.808567138671875,0.054443322122097015,-1.0625228881835938,1.0905463695526123
1667255123705046500,1.811046630859375,0.03245219215750694,-1.0918444395065308,1.0557270050048828
1667255123707526000,1.81352587890625,0.012904518283903599,-1.1193333864212036,1.0190751552581787
1667255123710005000,1.8160048828125,-0.004810560029000044,-1.1449897289276123,0.9873101711273193
1667255123712484400,1.818484375,-0.01763872057199478,-1.169424295425415,0.9549343585968018
1667255123714963700,1.820963623046875,-0.02741255611181259,-1.1889718770980835,0.9243911504745483
1667255123717442800,1.82344287109375,-0.03352120518684387,-1.2060761451721191,0.8993456959724426
1667255123719922200,1.825922119140625,-0.03779725730419159,-1.2219586372375488,0.8761327862739563
1667255123722401300,1.8284013671875,-0.03840812295675278,-1.232343316078186,0.8559742569923401
1667255123724880600,1.830880615234375,-0.035964664071798325,-1.2360085248947144,0.8462004065513611
1667255123727360000,1.833360107421875,-0.03107774630188942,-1.2329541444778442,0.8437569737434387
1667255123729839000,1.835839111328125,-0.023747367784380913,-1.2182934284210205,0.8468112945556641
1667255123732318500,1.838318359375,-0.013362666592001915,-1.1993566751480103,0.8571959733963013
1667255123734797800,1.8407978515625,0.0006872228696011007,-1.1724785566329956,0.8736893534660339
1667255123737277000,1.84327685546875,0.01779143698513508,-1.1376593112945557,0.8987348079681396
1667255123739756300,1.84575634765625,0.03367391973733902,-1.0948987007141113,0.9268345832824707
1667255123742235600,1.848235595703125,0.0550541877746582,-1.0484730005264282,0.9573778510093689
1667255123744714800,1.85071484375,0.07399099320173264,-0.9971603751182556,0.9897536635398865
1667255123747194000,1.853194091796875,0.09537126123905182,-0.9421825408935547,1.0264055728912354
1667255123749673200,1.855673095703125,0.11491893976926804,-0.8865938782691956,1.0593922138214111
1667255123752152600,1.858152587890625,0.13324488699436188,-0.8310051560401917,1.089935541152954
1667255123754632000,1.8606318359375,0.1521816849708557,-0.7778599262237549,1.1168135404586792
1667255123757111000,1.863111083984375,0.16623157262802124,-0.7283799052238464,1.1381938457489014
1667255123759590400,1.86559033203125,0.1778380125761032,-0.6856193542480469,1.1504111289978027
1667255123762069800,1.86806982421875,0.18516838550567627,-0.6508000493049622,1.1577414274215698
1667255123764548900,1.870548828125,0.189444437623024,-0.6184242367744446,1.1546871662139893
1667255123767028200,1.8730283203125,0.19249875843524933,-0.5891027450561523,1.1406372785568237
1667255123769507300,1.87550732421875,0.1888335794210434,-0.5628355145454407,1.1186461448669434
1667255123771986700,1.877986572265625,0.18639011681079865,-0.5384009480476379,1.0813833475112915
1667255123774466000,1.880466064453125,0.18028147518634796,-0.5170207023620605,1.0355684757232666
1667255123776945200,1.882945068359375,0.17172935605049133,-0.49747300148010254,0.9799798130989075
1667255123779424500,1.885424560546875,0.16195552051067352,-0.483423113822937,0.9133955836296082
1667255123781904000,1.88790380859375,0.15034909546375275,-0.4748710095882416,0.8437569737434387
1667255123784383000,1.890383056640625,0.14118611812591553,-0.4693732261657715,0.7649554014205933
1667255123786862300,1.8928623046875,0.12896881997585297,-0.4638754427433014,0.6830995678901672
1667255123789341400,1.895341552734375,0.11919499188661575,-0.4589885175228119,0.5981893539428711
1667255123791820800,1.89782080078125,0.10881029069423676,-0.45043641328811646,0.5138899683952332
1667255123794300200,1.900300048828125,0.09964732080698013,-0.44066259264945984,0.4283689260482788
1667255123796779300,1.902779296875,0.08804088830947876,-0.422947496175766,0.3477347791194916
1667255123799258600,1.905258544921875,0.07765618711709976,-0.39973464608192444,0.26710063219070435
1667255123801738000,1.907738037109375,0.06604975461959839,-0.36858054995536804,0.18829907476902008
1667255123804217000,1.910217041015625,0.0550541877746582,-0.33253952860832214,0.11255183815956116
1667255123806696400,1.912696533203125,0.04589121788740158,-0.2903898358345032,0.04169152304530144
1667255123809175600,1.915175537109375,0.037949975579977036,-0.24885104596614838,-0.02611446939408779
1667255123811655000,1.917655029296875,0.031230462715029716,-0.2012035846710205,-0.09086613357067108
1667255123814134300,1.92013427734375,0.029397867619991302,-0.15233440697193146,-0.1513417512178421
1667255123816613400,1.92261328125,0.029397867619991302,-0.10163262486457825,-0.208152174949646
1667255123819092700,1.9250927734375,0.029397867619991302,-0.053985174745321274,-0.2631300091743469
1667255123821572000,1.927572021484375,0.03061959706246853,-0.008170315995812416,-0.3168860971927643
1667255123824051200,1.93005126953125,0.031230462715029716,0.036422811448574066,-0.37064221501350403
1667255123826530600,1.932530517578125,0.03245219215750694,0.081015944480896,-0.41645705699920654
1667255123829010000,1.935010009765625,0.03428478538990021,0.12377647310495377,-0.46227192878723145
1667255123831489000,1.937489013671875,0.03611737862229347,0.16470441222190857,-0.5062541961669922
1667255123833968400,1.939968505859375,0.037949975579977036,0.20135630667209625,-0.5459604263305664
1667255123836447500,1.942447509765625,0.04039343446493149,0.23251040279865265,-0.5832231640815735
1667255123838926800,1.9449267578125,0.041004300117492676,0.2612210512161255,-0.6155989766120911
1667255123841406200,1.94740625,0.041615162044763565,0.28993168473243713,-0.641866147518158
1667255123843885300,1.94988525390625,0.04039343446493149,0.31925320625305176,-0.6644681692123413
1667255123846364700,1.95236474609375,0.04039343446493149,0.3522399067878723,-0.6809614896774292
1667255123848844000,1.954843994140625,0.037949975579977036,0.3882809281349182,-0.69012451171875
1667255123851323100,1.9573232421875,0.03672824427485466,0.42310020327568054,-0.6919570565223694
1667255123853802500,1.959802490234375,0.03367391973733902,0.45303258299827576,-0.6870701313018799
1667255123856281600,1.962281494140625,0.026343543082475662,0.4756345748901367,-0.6779071688652039
1667255123858761000,1.964760986328125,0.019624030217528343,0.4902953505516052,-0.6650790572166443
1667255123861240300,1.967240234375,0.011682788841426373,0.4957931339740753,-0.6455313563346863
1667255123863719400,1.969719482421875,0.0019089524867013097,0.4915170669555664,-0.6223185062408447
1667255123866198800,1.97219873046875,-0.010919207707047462,0.47991064190864563,-0.596662163734436
1667255123868678100,1.97467822265625,-0.026190826669335365,0.45914125442504883,-0.569173276424408
1667255123871157200,1.9771572265625,-0.042073313146829605,0.43287405371665955,-0.5386300086975098
1667255123873636600,1.97963671875,-0.05734493210911751,0.40171995759010315,-0.5074759125709534
1667255123876116000,1.982115966796875,-0.0732274129986763,0.368122398853302,-0.4757109582424164
1667255123878595000,1.984594970703125,-0.08910989761352539,0.3333030939102173,-0.4433351159095764
1667255123881074400,1.987074462890625,-0.1043815165758133,0.2972620725631714,-0.41034841537475586
1667255123883553500,1.989553466796875,-0.11843141168355942,0.2599993348121643,-0.37552911043167114
1667255123886033000,1.992032958984375,-0.13064870238304138,0.22273656725883484,-0.3413206934928894
1667255123888512300,1.99451220703125,-0.1398116797208786,0.183030366897583,-0.30894485116004944
1667255123890991400,1.996991455078125,-0.1453094631433487,0.14393500983715057,-0.2790125012397766
1667255123893470700,1.999470703125,-0.14714205265045166,0.10056361556053162,-0.2490801066160202
1667255123895950000,2.0019501953125,-0.14714205265045166,0.05841394513845444,-0.22220206260681152
1667255123898429200,2.00442919921875,-0.14653119444847107,0.01870773360133171,-0.20143266022205353
1667255123900908500,2.006908447265625,-0.1446985900402069,-0.018555017188191414,-0.18310672044754028
1667255123903388000,2.009387939453125,-0.14286600053310394,-0.0527634471654892,-0.1672242283821106
1667255123905867000,2.011866943359375,-0.14225514233112335,-0.08025235682725906,-0.15256348252296448
1667255123908346400,2.014346435546875,-0.14164426922798157,-0.10590868443250656,-0.14217877388000488
1667255123910825500,2.016825439453125,-0.1398116797208786,-0.12606722116470337,-0.13484840095043182
1667255123913304800,2.019304931640625,-0.13920080661773682,-0.14194969832897186,-0.12935061752796173
1667255123915784200,2.0217841796875,-0.13736821711063385,-0.15233440697193146,-0.12385283410549164
1667255123918263300,2.02426318359375,-0.13309216499328613,-0.15844304859638214,-0.12018764764070511
1667255123920742700,2.02674267578125,-0.1300378441810608,-0.1602756530046463,-0.11591159552335739
1667255123923222000,2.029221923828125,-0.12331832945346832,-0.15966477990150452,-0.11285726726055145
1667255123925701000,2.031701171875,-0.11232276260852814,-0.15416699647903442,-0.10919208079576492
1667255123928180500,2.034180419921875,-0.10193806141614914,-0.14317142963409424,-0.10674861818552017
1667255123930659600,2.03665966796875,-0.08788817375898361,-0.12606722116470337,-0.10858121514320374
1667255123933139000,2.039138916015625,-0.0732274129986763,-0.10285435616970062,-0.1055268943309784
1667255123935618300,2.041618408203125,-0.055512335151433945,-0.07536543905735016,-0.10613775253295898
1667255123938097400,2.044097412109375,-0.03962985426187515,-0.047265663743019104,-0.10613775253295898
1667255123940576800,2.04657666015625,-0.0243582334369421,-0.01611155830323696,-0.10858121514320374
1667255123943056100,2.04905615234375,-0.007254019379615784,0.0193185992538929,-0.1104138121008873
1667255123945535200,2.05153515625,0.007406735327094793,0.05719221383333206,-0.11224640160799026
1667255123948014600,2.0540146484375,0.02023489587008953,0.09750928729772568,-0.11285726726055145
1667255123950494000,2.056493896484375,0.03367391973733902,0.13599377870559692,-0.11407899856567383
1667255123952973000,2.05897314453125,0.04222602769732475,0.17508912086486816,-0.1153007298707962
1667255123955452400,2.061452392578125,0.04650207981467247,0.2135736048221588,-0.11468986421823502
1667255123957931500,2.063931640625,0.04833467677235603,0.2514472007751465,-0.11407899856567383
1667255123960411000,2.066410888671875,0.04528035223484039,0.2862665057182312,-0.11224640160799026
1667255123962890200,2.06889013671875,0.041615162044763565,0.31986406445503235,-0.10980294644832611
1667255123965369300,2.071369384765625,0.03306305781006813,0.3479638397693634,-0.10430516302585602
1667255123967848700,2.0738486328125,0.019624030217528343,0.3730092942714691,-0.10247256606817245
1667255123970328000,2.076328125,0.005574141163378954,0.39194610714912415,-0.09880737960338593
1667255123972807200,2.07880712890625,-0.009086613543331623,0.40233081579208374,-0.09575305134057999
1667255123975286500,2.08128662109375,-0.028634287416934967,0.4059959948062897,-0.0902552679181099
1667255123977765600,2.083765625,-0.04818195849657059,0.4035525321960449,-0.08659008145332336
1667255123980245000,2.086244873046875,-0.06772962957620621,0.39683303236961365,-0.08048143237829208
1667255123982724400,2.088724365234375,-0.08727730810642242,0.3876700699329376,-0.07498364895582199
1667255123985203500,2.091203369140625,-0.1037706509232521,0.3797288239002228,-0.06643154472112656
1667255123987682800,2.093682861328125,-0.1196531355381012,0.3699549734592438,-0.05849030241370201
1667255123990162200,2.096162109375,-0.13125957548618317,0.36018115282058716,-0.0487164668738842
1667255123992641300,2.098641357421875,-0.13920080661773682,0.349185585975647,-0.03649916872382164
1667255123995120600,2.10112060546875,-0.1453094631433487,0.34124433994293213,-0.02367101050913334
1667255123997599700,2.103599853515625,-0.14714205265045166,0.3333030939102173,-0.013897174037992954
1667255124000079000,2.1060791015625,-0.14653119444847107,0.3271944522857666,-0.00045814859913662076
1667255124002558500,2.108558349609375,-0.14408773183822632,0.3174206018447876,0.01359174121171236
1667255124005037600,2.11103759765625,-0.1398116797208786,0.30520331859588623,0.02519817277789116
1667255124007517000,2.113516845703125,-0.13309216499328613,0.2911534309387207,0.0386371985077858
1667255124009996300,2.115996337890625,-0.1251509189605713,0.27282747626304626,0.05146535858511925
1667255124012475400,2.118475341796875,-0.11293362826108932,0.2496146261692047,0.06368265300989151
1667255124014954800,2.120954833984375,-0.10193806141614914,0.22762349247932434,0.0746782198548317
1667255124017434000,2.12343408203125,-0.09155336022377014,0.20685409009456635,0.08628465235233307
1667255124019913200,2.125913330078125,-0.08177952468395233,0.18486295640468597,0.09728021919727325
1667255124022392600,2.128392578125,-0.0732274129986763,0.16592614352703094,0.10949750989675522
1667255124024871700,2.13087158203125,-0.06406444311141968,0.14882193505764008,0.11988221108913422
1667255124027351000,2.13335107421875,-0.05612320080399513,0.131717711687088,0.1302669197320938
1667255124029830400,2.135830322265625,-0.04818195849657059,0.11400263756513596,0.141262486577034
1667255124032309500,2.1383095703125,-0.042073313146829605,0.09873101860284805,0.15286891162395477
1667255124034788900,2.140788818359375,-0.039018988609313965,0.08162680268287659,0.162031888961792
1667255124037268200,2.143268310546875,-0.03474293276667595,0.06391172856092453,0.1724165827035904
1667255124039747300,2.145747314453125,-0.03352120518684387,0.046807512640953064,0.1821904182434082
1667255124042226700,2.148226806640625,-0.03413207083940506,0.030925029888749123,0.19562944769859314
1667255124044705800,2.150705810546875,-0.0371863916516304,0.01626427471637726,0.2084576040506363
1667255124047185200,2.15318505859375,-0.042684175074100494,0.0034361144062131643,0.22250749170780182
1667255124049664500,2.15566455078125,-0.05062541738152504,-0.006337722297757864,0.23961171507835388
1667255124052143600,2.1581435546875,-0.05917752534151077,-0.009392046369612217,0.2597702443599701
1667255124054623000,2.160623046875,-0.07261654734611511,-0.008781181648373604,0.28237223625183105
1667255124057102300,2.163102294921875,-0.08605557680130005,-0.0057268571108579636,0.3061959743499756
1667255124059581400,2.16558154296875,-0.0988837331533432,-0.000839939049910754,0.3324631452560425
1667255124062060800,2.168060791015625,-0.11293362826108932,0.004046979360282421,0.3617846667766571
1667255124064540000,2.170539794921875,-0.12270746380090714,0.010155626572668552,0.38927358388900757
1667255124067019300,2.173019287109375,-0.1343138962984085,0.015042545273900032,0.4143190383911133
1667255124069498600,2.17549853515625,-0.1453094631433487,0.021151192486286163,0.439364492893219
1667255124071977700,2.177977783203125,-0.15386156737804413,0.026648975908756256,0.4595230221748352
1667255124074457000,2.18045703125,-0.1654679924249649,0.033979352563619614,0.47784897685050964
1667255124076936400,2.1829365234375,-0.17402009665966034,0.03825540840625763,0.4912880063056946
1667255124079415600,2.18541552734375,-0.18379394710063934,0.043753188103437424,0.502894401550293
1667255124081895000,2.18789501953125,-0.19417864084243774,0.046807512640953064,0.5083922147750854
1667255124084374300,2.190374267578125,-0.20395247638225555,0.046807512640953064,0.5120574235916138
1667255124086853400,2.192853271484375,-0.21555891633033752,0.046196650713682175,0.5108356475830078
1667255124089332700,2.195332763671875,-0.22411102056503296,0.04130972921848297,0.5059487819671631
1667255124091812000,2.19781201171875,-0.2326631247997284,0.0345902182161808,0.5016726851463318
1667255124094291200,2.200291259765625,-0.23938263952732086,0.024816380813717842,0.49312058091163635
1667255124096770600,2.2027705078125,-0.24488042294979095,0.013820815831422806,0.4839576184749603
1667255124099249700,2.205249755859375,-0.25098907947540283,0.0022143847309052944,0.4741837978363037
1667255124101729000,2.20772900390625,-0.2528216540813446,-0.009392046369612217,0.46257734298706055
1667255124104208400,2.21020849609375,-0.2534325122833252,-0.01977674663066864,0.45097091794013977
1667255124106687500,2.2126875,-0.2528216540813446,-0.030161447823047638,0.44180795550346375
1667255124109166800,2.215166748046875,-0.2515999376773834,-0.03932442143559456,0.4326449930667877
1667255124111646200,2.217646240234375,-0.2485456019639969,-0.047265663743019104,0.42653632164001465
1667255124114125300,2.220125244140625,-0.2473238706588745,-0.053374309092760086,0.4192059636116028
1667255124116604700,2.222604736328125,-0.24365869164466858,-0.05826122686266899,0.41615164279937744
1667255124119084000,2.225083984375,-0.24365869164466858,-0.060704685747623444,0.4137081801891327
1667255124121563100,2.227563232421875,-0.2424369603395462,-0.062537282705307,0.41126471757888794
1667255124124042500,2.23004248046875,-0.24060437083244324,-0.05948295816779137,0.4124864339828491
1667255124126521600,2.232521484375,-0.24060437083244324,-0.05520690605044365,0.4124864339828491
1667255124129001000,2.2350009765625,-0.24060437083244324,-0.04848739132285118,0.41126471757888794
1667255124131480300,2.237480224609375,-0.24060437083244324,-0.037491824477910995,0.41187557578086853
1667255124133959400,2.23995947265625,-0.23999349772930145,-0.025274530053138733,0.4094321131706238
1667255124136438800,2.242438720703125,-0.23938263952732086,-0.009392046369612217,0.40698865056037903
1667255124138918100,2.244918212890625,-0.2381609082221985,0.007101302966475487,0.40026915073394775
1667255124141397200,2.247397216796875,-0.23510658740997314,0.02848157100379467,0.3917170464992523
1667255124143876600,2.249876708984375,-0.22960880398750305,0.05230529606342316,0.378888875246048
1667255124146356000,2.25235595703125,-0.2216675579547882,0.07979421317577362,0.36422812938690186
1667255124148835000,2.2548349609375,-0.212504580616951,0.10728313028812408,0.34956738352775574
1667255124151314400,2.257314453125,-0.2008981555700302,0.1372154951095581,0.3318522870540619
1667255124153793800,2.259793701171875,-0.18868085741996765,0.16470441222190857,0.31291547417640686
1667255124156273000,2.26227294921875,-0.17279838025569916,0.19219332933425903,0.29336780309677124
1667255124158752300,2.264752197265625,-0.15874847769737244,0.21723878383636475,0.27259841561317444
1667255124161231400,2.2672314453125,-0.14347685873508453,0.24106250703334808,0.25060728192329407
1667255124163710700,2.269710693359375,-0.12881611287593842,0.26366451382637024,0.22739441692829132
1667255124166190000,2.272190185546875,-0.1141553521156311,0.28321218490600586,0.20601414144039154
1667255124168669200,2.274669189453125,-0.10010546445846558,0.29848378896713257,0.18341214954853058
1667255124171148500,2.2771484375,-0.08910989761352539,0.3125337064266205,0.15897755324840546
1667255124173628000,2.2796279296875,-0.0781143307685852,0.32475098967552185,0.13271036744117737
1667255124176107000,2.28210693359375,-0.07078395783901215,0.3339139521121979,0.10583232343196869
1667255124178586400,2.28458642578125,-0.06956222653388977,0.3388008773326874,0.07651081681251526
1667255124181065700,2.287065673828125,-0.0683404952287674,0.3436878025531769,0.04718930274248123
1667255124183544800,2.289544921875,-0.0732274129986763,0.3424660563468933,0.016035201027989388
1667255124186024200,2.292024169921875,-0.07994692772626877,0.33513569831848145,-0.014508038759231567
1667255124188503300,2.29450341796875,-0.09033162891864777,0.32414013147354126,-0.044440411031246185
1667255124190982700,2.296982666015625,-0.10132719576358795,0.30886849761009216,-0.0743727833032608
1667255124193462000,2.2994619140625,-0.11537708342075348,0.2911534309387207,-0.10063996911048889
1667255124195941000,2.301941162109375,-0.1300378441810608,0.2709949016571045,-0.12140937149524689
1667255124198420500,2.30442041015625,-0.14286600053310394,0.2502254843711853,-0.13851359486579895
1667255124200899800,2.30689990234375,-0.1556941568851471,0.23251040279865265,-0.14950916171073914
1667255124203379000,2.30937890625,-0.16852232813835144,0.2196822464466095,-0.15561780333518982
1667255124205858300,2.3118583984375,-0.17768529057502747,0.21051926910877228,-0.15317434072494507
1667255124208337400,2.31433740234375,-0.1862373948097229,0.20746494829654694,-0.145843967795372
1667255124210816800,2.316816650390625,-0.19295690953731537,0.2092975378036499,-0.12996147572994232
1667255124213296000,2.319296142578125,-0.19723296165466309,0.21723878383636475,-0.10858121514320374
1667255124215775200,2.321775146484375,-0.19784383475780487,0.22762349247932434,-0.08109229803085327
1667255124218254600,2.324254638671875,-0.19723296165466309,0.23861905932426453,-0.0487164668738842
1667255124220734000,2.32673388671875,-0.191735178232193,0.24900375306606293,-0.01511890348047018
1667255124223213000,2.329213134765625,-0.18501566350460052,0.25816673040390015,0.019700389355421066
1667255124225692400,2.3316923828125,-0.17768529057502747,0.2648862302303314,0.055741410702466965
1667255124228171500,2.334171630859375,-0.16668972373008728,0.26732969284057617,0.09117157012224197
1667255124230651000,2.33665087890625,-0.15874847769737244,0.26732969284057617,0.12232567369937897
1667255124233130200,2.339130126953125,-0.1495855152606964,0.2612210512161255,0.1516471803188324
1667255124235609300,2.341609375,-0.14408773183822632,0.2514472007751465,0.17302745580673218
1667255124238088700,2.344088623046875,-0.13736821711063385,0.2398407906293869,0.191964253783226
1667255124240568000,2.346568115234375,-0.13248129189014435,0.224569171667099,0.20662501454353333
1667255124243047200,2.349047119140625,-0.12637265026569366,0.2044106274843216,0.21945317089557648
1667255124245526500,2.351526611328125,-0.12026400119066238,0.18547381460666656,0.22617268562316895
1667255124248006000,2.354005859375,-0.11720968037843704,0.1677587330341339,0.23105959594249725
1667255124250485000,2.356485107421875,-0.11110103130340576,0.1482110619544983,0.2341139316558838
1667255124252964400,2.35896435546875,-0.10560324788093567,0.13049599528312683,0.233503058552742
1667255124255443700,2.361443603515625,-0.10254892706871033,0.11278090626001358,0.23044873774051666
1667255124257922800,2.3639228515625,-0.09582941234111786,0.09934188425540924,0.22495095431804657
1667255124260402200,2.366402099609375,-0.09216422587633133,0.09017891436815262,0.2188423126935959
1667255124262881500,2.368881591796875,-0.0884990319609642,0.08773545175790787,0.21090106666088104
1667255124265360600,2.371360595703125,-0.08605557680130005,0.091400645673275,0.20051635801792145
1667255124267840000,2.373840087890625,-0.08177952468395233,0.10178534686565399,0.19074252247810364
1667255124270319000,2.376319091796875,-0.0781143307685852,0.11522436887025833,0.1773035079240799
1667255124272798500,2.378798583984375,-0.07139482349157333,0.12927426397800446,0.16569706797599792
1667255124275277800,2.38127783203125,-0.06467530876398087,0.14393500983715057,0.15042544901371002
1667255124277757000,2.3837568359375,-0.05734493210911751,0.15615230798721313,0.1302669197320938
1667255124280236300,2.386236328125,-0.051847148686647415,0.1683696061372757,0.11377356201410294
1667255124282715600,2.388715576171875,-0.04512763395905495,0.17447824776172638,0.09361502528190613
1667255124285194800,2.39119482421875,-0.042073313146829605,0.18058690428733826,0.07345648854970932
1667255124287674000,2.393674072265625,-0.03840812295675278,0.183030366897583,0.05757400393486023
1667255124290153500,2.396153564453125,-0.03840812295675278,0.18119776248931885,0.04230238497257233
1667255124292632600,2.398632568359375,-0.0371863916516304,0.1726456582546234,0.028863361105322838
1667255124295112000,2.40111181640625,-0.04024071618914604,0.16042836010456085,0.01847865991294384
1667255124297591300,2.40359130859375,-0.04390590637922287,0.1427132785320282,0.011759147047996521
1667255124300070400,2.4060703125,-0.05001455545425415,0.12438733875751495,0.009315688163042068
1667255124302549800,2.4085498046875,-0.05673406645655632,0.10606139898300171,0.010537417605519295
1667255124305028900,2.41102880859375,-0.06345357745885849,0.0859028622508049,0.01847865991294384
1667255124307508200,2.41350830078125,-0.07017309218645096,0.06330086290836334,0.02825249545276165
1667255124309987600,2.415987548828125,-0.07628174126148224,0.043142326176166534,0.04474584385752678
1667255124312466700,2.418466796875,-0.08116865903139114,0.026038112118840218,0.06490438431501389
1667255124314946000,2.420946044921875,-0.08605557680130005,0.008933897130191326,0.08567378669977188
1667255124317425400,2.42342529296875,-0.0884990319609642,-0.00755945174023509,0.1101083755493164
1667255124319904500,2.425904541015625,-0.09094249457120895,-0.025274530053138733,0.13454297184944153
1667255124322384000,2.4283837890625,-0.09460768103599548,-0.041157014667987823,0.1614210158586502
1667255124324863000,2.430863037109375,-0.09705114364624023,-0.05887209251523018,0.18585561215877533
1667255124327342300,2.43334228515625,-0.09949459880590439,-0.07231111824512482,0.21151192486286163
1667255124329821700,2.43582177734375,-0.10132719576358795,-0.08452841639518738,0.2341139316558838
1667255124332300800,2.43830078125,-0.1043815165758133,-0.09613484144210815,0.2548833191394806
1667255124334780200,2.4407802734375,-0.10865757614374161,-0.10285435616970062,0.2707658112049103
1667255124337259500,2.443259521484375,-0.11293362826108932,-0.10529781877994537,0.28664830327033997
1667255124339738600,2.445738525390625,-0.11598794907331467,-0.10651954263448715,0.29703301191329956
1667255124342218000,2.448218017578125,-0.1190422773361206,-0.10285435616970062,0.30375251173973083
1667255124344697300,2.450697265625,-0.12087486684322357,-0.09674570709466934,0.305585116147995
1667255124347176400,2.453176513671875,-0.12148573249578476,-0.09552398324012756,0.30253079533576965
1667255124349655800,2.45565576171875,-0.12148573249578476,-0.09674570709466934,0.29764387011528015
1667255124352135200,2.45813525390625,-0.12331832945346832,-0.10041090101003647,0.2854265570640564
1667255124354614300,2.4606142578125,-0.12270746380090714,-0.10529781877994537,0.2689332067966461
1667255124357093600,2.46309375,-0.1251509189605713,-0.11262819170951843,0.24755294620990753
1667255124359572700,2.46557275390625,-0.12637265026569366,-0.11873684078454971,0.22678354382514954
1667255124362052000,2.468052001953125,-0.12698352336883545,-0.12667807936668396,0.2029598206281662
1667255124364531500,2.470531494140625,-0.13064870238304138,-0.1340084671974182,0.1773035079240799
1667255124367010600,2.473010498046875,-0.1343138962984085,-0.14317142963409424,0.15531237423419952
1667255124369490000,2.475489990234375,-0.13553562760353088,-0.14744748175144196,0.13271036744117737
1667255124371969300,2.47796923828125,-0.1404225379228592,-0.15111267566680908,0.10827577859163284
1667255124374448400,2.480448486328125,-0.14164426922798157,-0.1505018174648285,0.08750637620687485
1667255124376927700,2.482927734375,-0.1446985900402069,-0.14378230273723602,0.06734783947467804
1667255124379407000,2.485406982421875,-0.1446985900402069,-0.13217586278915405,0.05146535858511925
1667255124381886200,2.48788623046875,-0.14347685873508453,-0.11873684078454971,0.036193739622831345
1667255124384365600,2.490365478515625,-0.14408773183822632,-0.10041090101003647,0.02153298258781433
1667255124386845000,2.492844970703125,-0.14347685873508453,-0.08086322247982025,0.007483093533664942
1667255124389324000,2.495323974609375,-0.14286600053310394,-0.05581776797771454,-0.004123337101191282
1667255124391803400,2.497803466796875,-0.14592032134532928,-0.028328854590654373,-0.013897174037992954
1667255124394282800,2.50028271484375,-0.1508072465658188,0.004657844081521034,-0.021838415414094925
1667255124396761900,2.502761962890625,-0.15752676129341125,0.039477135986089706,-0.031001387163996696
1667255124399241200,2.5052412109375,-0.16913318634033203,0.07857248187065125,-0.03649916872382164
1667255124401720300,2.50772021484375,-0.17951788008213043,0.12072215229272842,-0.0383317656815052
1667255124404199700,2.51019970703125,-0.1911243200302124,0.16409355401992798,-0.03894263133406639
1667255124406679000,2.512678955078125,-0.20395247638225555,0.20807582139968872,-0.0383317656815052
1667255124409158100,2.515158203125,-0.21616977453231812,0.2496146261692047,-0.03527744114398956
1667255124411637500,2.517637451171875,-0.22533275187015533,0.2905425727367401,-0.03222311660647392
1667255124414116900,2.520116943359375,-0.2326631247997284,0.32963791489601135,-0.028557928279042244
1667255124416596000,2.522595947265625,-0.23938263952732086,0.36506807804107666,-0.0206166859716177
1667255124419075300,2.525075439453125,-0.24549128115177155,0.39255696535110474,-0.02000582218170166
1667255124421554700,2.5275546875,-0.24610215425491333,0.41149377822875977,-0.013286309316754341
1667255124424033800,2.53003369140625,-0.2479347437620163,0.42187848687171936,-0.01206457894295454
1667255124426513200,2.53251318359375,-0.2485456019639969,0.4243219494819641,-0.010842849500477314
1667255124428992300,2.5349921875,-0.25098907947540283,0.41638070344924927,-0.008399390615522861
1667255124431471600,2.5374716796875,-0.252210795879364,0.4059959948062897,-0.007788525894284248
1667255124433951000,2.539950927734375,-0.25526511669158936,0.3901135325431824,-0.005955931730568409
1667255124436430000,2.54243017578125,-0.2583194375038147,0.3693441152572632,-0.0010690133785828948
1667255124438909400,2.544909423828125,-0.26137375831604004,0.3473529815673828,0.0038179049734026194
1667255124441388800,2.547388916015625,-0.2638172209262848,0.3271944522857666,0.014813470654189587
1667255124443868000,2.549867919921875,-0.26503896713256836,0.3015381395816803,0.022754713892936707
1667255124446347300,2.55234716796875,-0.26687154173851013,0.2746600806713104,0.03436114266514778
1667255124448826600,2.55482666015625,-0.2680932879447937,0.24900375306606293,0.04474584385752678
1667255124451305700,2.5573056640625,-0.2680932879447937,0.22334744036197662,0.05513054504990578
1667255124453785000,2.55978515625,-0.27053675055503845,0.19646938145160675,0.06551524996757507
1667255124456264400,2.562264404296875,-0.2699258625507355,0.1683696061372757,0.07223475724458694
1667255124458743600,2.56474365234375,-0.27175846695899963,0.1427132785320282,0.08078686892986298
1667255124461223000,2.567222900390625,-0.2723693251609802,0.11583523452281952,0.09056070446968079
1667255124463702300,2.569702392578125,-0.2735910713672638,0.08834631741046906,0.1003345400094986
1667255124466181400,2.572181396484375,-0.2742019295692444,0.05780307948589325,0.11194097250699997
1667255124468660700,2.57466064453125,-0.2735910713672638,0.026648975908756256,0.12415826320648193
1667255124471140000,2.57714013671875,-0.27114760875701904,-0.006948587018996477,0.13698641955852509
1667255124473619200,2.579619140625,-0.26687154173851013,-0.03810269013047218,0.15225805342197418
1667255124476098600,2.5820986328125,-0.261984646320343,-0.07047852128744125,0.16814053058624268
1667255124478577700,2.58457763671875,-0.2570977210998535,-0.10041090101003647,0.18524473905563354
1667255124481057000,2.58705712890625,-0.25465425848960876,-0.1291215419769287,0.2029598206281662
1667255124483536400,2.589536376953125,-0.24976733326911926,-0.15416699647903442,0.22006404399871826
1667255124486015500,2.592015380859375,-0.24549128115177155,-0.17493639886379242,0.23472478985786438
1667255124488494800,2.594494873046875,-0.24426954984664917,-0.1908188909292221,0.24816381931304932
1667255124490974200,2.59697412109375,-0.24426954984664917,-0.20242531597614288,0.25671592354774475
1667255124493453300,2.599453369140625,-0.2430478185415268,-0.2115882933139801,0.2652680277824402
1667255124495932700,2.6019326171875,-0.24182608723640442,-0.2176969349384308,0.27137666940689087
1667255124498411800,2.604411865234375,-0.24121522903442383,-0.21952952444553375,0.27626359462738037
1667255124500891100,2.60689111328125,-0.23999349772930145,-0.22075125575065613,0.27809619903564453
1667255124503370500,2.60937060546875,-0.2381609082221985,-0.21830779314041138,0.27687445282936096
1667255124505849600,2.611849609375,-0.23327398300170898,-0.21586434543132782,0.2744309902191162
1667255124508329000,2.614328857421875,-0.22899793088436127,-0.21281002461910248,0.2695440948009491
1667255124510808300,2.616808349609375,-0.2222784161567688,-0.20731224119663239,0.2585485279560089
1667255124513287400,2.619287353515625,-0.21616977453231812,-0.19814926385879517,0.24694208800792694
1667255124515766800,2.621766845703125,-0.21067199110984802,-0.18715369701385498,0.23105959594249725
1667255124518246100,2.62424609375,-0.20395247638225555,-0.1755472719669342,0.21639885008335114
1667255124520725200,2.626725341796875,-0.19723296165466309,-0.16271910071372986,0.20173808932304382
1667255124523204600,2.62920458984375,-0.18929173052310944,-0.14866921305656433,0.18463388085365295
1667255124525684000,2.63168408203125,-0.1813504844903946,-0.13095413148403168,0.1718057245016098
1667255124528163000,2.6341630859375,-0.17340923845767975,-0.1089630052447319,0.15958842635154724
1667255124530642400,2.636642333984375,-0.16485713422298431,-0.08391755074262619,0.14798198640346527
1667255124533121800,2.639121826171875,-0.15141810476779938,-0.0576503649353981,0.13820815086364746
1667255124535601000,2.641600830078125,-0.13858994841575623,-0.0295505840331316,0.12904518842697144
1667255124538080300,2.644080322265625,-0.12392919510602951,-0.003283398225903511,0.12110394239425659
1667255124540559600,2.6465595703125,-0.10743584483861923,0.02237292192876339,0.11194097250699997
1667255124543038700,2.649038818359375,-0.09338594973087311,0.04558578506112099,0.10216713696718216
1667255124545518000,2.65151806640625,-0.07567087560892105,0.0657443255186081,0.09361502528190613
1667255124547997400,2.65399755859375,-0.06101011857390404,0.07918334752321243,0.08323032408952713
1667255124550476500,2.6564765625,-0.048792824149131775,0.08773545175790787,0.0746782198548317
1667255124552956000,2.658955810546875,-0.03352120518684387,0.09017891436815262,0.06612611562013626
1667255124555435000,2.66143505859375,-0.020693045109510422,0.08712458610534668,0.06062832847237587
1667255124557914400,2.663914306640625,-0.007864884100854397,0.07857248187065125,0.0539088174700737
1667255124560393700,2.666393798828125,0.0025198173243552446,0.0657443255186081,0.05085449293255806
1667255124562872800,2.668872802734375,0.010461059398949146,0.049250971525907516,0.04780016839504242
1667255124565352200,2.671352294921875,0.02084576152265072,0.02848157100379467,0.04657844081521034
1667255124567831600,2.67383154296875,0.02756527252495289,0.008933897130191326,0.04657844081521034
1667255124570310700,2.676310546875,0.03245219215750694,-0.012446369975805283,0.04474584385752678
1667255124572790000,2.6787900390625,0.03733910992741585,-0.03504836559295654,0.04230238497257233
1667255124575269000,2.68126904296875,0.04039343446493149,-0.0576503649353981,0.04230238497257233
1667255124577748500,2.68374853515625,0.04039343446493149,-0.08025235682725906,0.0386371985077858
1667255124580227800,2.686227783203125,0.041004300117492676,-0.10468695312738419,0.03802633285522461
1667255124582707000,2.68870703125,0.044669486582279205,-0.12789981067180634,0.036804601550102234
1667255124585186300,2.691186279296875,0.044669486582279205,-0.14805835485458374,0.036193739622831345
1667255124587665700,2.693665771484375,0.047723811119794846,-0.16699515283107758,0.03558287397027016
1667255124590144800,2.696144775390625,0.047723811119794846,-0.17860159277915955,0.036804601550102234
1667255124592624000,2.6986240234375,0.04833467677235603,-0.18532110750675201,0.0386371985077858
1667255124595103500,2.701103515625,0.04711294546723366,-0.18471023440361023,0.04169152304530144
1667255124597582600,2.70358251953125,0.04833467677235603,-0.17799071967601776,0.04718930274248123
1667255124600062000,2.70606201171875,0.04894553869962692,-0.16821688413619995,0.055741410702466965
1667255124602541300,2.708541259765625,0.0501672700047493,-0.1559995859861374,0.06734783947467804
1667255124605020400,2.7110205078125,0.04833467677235603,-0.14256057143211365,0.07834340631961823
1667255124607499800,2.713499755859375,0.04833467677235603,-0.124845489859581,0.09300415962934494
1667255124609979100,2.715979248046875,0.047723811119794846,-0.10590868443250656,0.10766492038965225
1667255124612458200,2.718458251953125,0.04589121788740158,-0.08269581943750381,0.12293653935194016
1667255124614937600,2.7209375,0.04589121788740158,-0.05887209251523018,0.13942988216876984
1667255124617417000,2.7234169921875,0.044669486582279205,-0.037491824477910995,0.1516471803188324
1667255124619896000,2.72589599609375,0.047723811119794846,-0.0191658828407526,0.16814053058624268
1667255124622375400,2.72837548828125,0.050778135657310486,-0.002672533504664898,0.18096868693828583
1667255124624854800,2.730854736328125,0.05199986323714256,0.011377356946468353,0.19013166427612305
1667255124627334000,2.733333984375,0.054443322122097015,0.021151192486286163,0.2023489624261856
1667255124629813200,2.735813232421875,0.05627591907978058,0.030314164236187935,0.20906847715377808
1667255124632292400,2.738292236328125,0.05566505342721939,0.03764454275369644,0.2182314395904541
1667255124634771700,2.740771728515625,0.05322159454226494,0.04253146052360535,0.22434009611606598
1667255124637251000,2.7432509765625,0.04833467677235603,0.04802924394607544,0.2292270064353943
1667255124639730200,2.745730224609375,0.041004300117492676,0.052916161715984344,0.2341139316558838
1667255124642209500,2.74820947265625,0.03000873140990734,0.05719221383333206,0.23533566296100616
1667255124644689000,2.75068896484375,0.021456625312566757,0.06146826967597008,0.23655737936496735
1667255124647168000,2.75316796875,0.010461059398949146,0.06330086290836334,0.23655737936496735
1667255124649647400,2.7556474609375,-0.0005345066892914474,0.06391172856092453,0.23533566296100616
1667255124652126700,2.758126708984375,-0.012751801870763302,0.06146826967597008,0.233503058552742
1667255124654605800,2.760605712890625,-0.023747367784380913,0.05780307948589325,0.23228132724761963
1667255124657085200,2.763085205078125,-0.0371863916516304,0.05230529606342316,0.2292270064353943
1667255124659564500,2.765564453125,-0.05062541738152504,0.046196650713682175,0.22739441692829132
1667255124662043600,2.768043701171875,-0.06467530876398087,0.03825540840625763,0.22495095431804657
1667255124664523000,2.77052294921875,-0.07750347256660461,0.03214675933122635,0.22556181252002716
1667255124667002400,2.77300244140625,-0.09094249457120895,0.02542724646627903,0.22678354382514954
1667255124669481500,2.7754814453125,-0.10254892706871033,0.021151192486286163,0.23167046904563904
1667255124671960800,2.7779609375,-0.11049016565084457,0.017486004158854485,0.23777911067008972
1667255124674440200,2.780440185546875,-0.11720968037843704,0.014431680552661419,0.2444986253976822
1667255124676919300,2.782919189453125,-0.12087486684322357,0.014431680552661419,0.2548833191394806
1667255124679398700,2.785398681640625,-0.1245400533080101,0.01626427471637726,0.2646571695804596
1667255124681878000,2.7878779296875,-0.12331832945346832,0.018096869811415672,0.27687445282936096
1667255124684357000,2.790357177734375,-0.12087486684322357,0.021151192486286163,0.2890917658805847
1667255124686836500,2.79283642578125,-0.12087486684322357,0.027259841561317444,0.29825472831726074
1667255124689315600,2.795315673828125,-0.11843141168355942,0.03214675933122635,0.3092502951622009
1667255124691795000,2.797794921875,-0.11720968037843704,0.043142326176166534,0.31780239939689636
1667255124694274300,2.8002744140625,-0.11843141168355942,0.055970486253499985,0.3269653618335724
1667255124696753400,2.80275341796875,-0.12087486684322357,0.07002037763595581,0.33001968264579773
1667255124699232800,2.805232666015625,-0.12392919510602951,0.08651372790336609,0.33490660786628723
1667255124701712100,2.807712158203125,-0.12759438157081604,0.10483966767787933,0.3361283540725708
1667255124704191200,2.810191162109375,-0.13064870238304138,0.1219438835978508,0.3361283540725708
1667255124706670600,2.812670654296875,-0.13614648580551147,0.13660463690757751,0.3324631452560425
1667255124709150000,2.81514990234375,-0.13675735890865326,0.15126539766788483,0.32452189922332764
1667255124711629000,2.817629150390625,-0.13920080661773682,0.16165009140968323,0.3153589367866516
1667255124714108400,2.8201083984375,-0.14164426922798157,0.16959133744239807,0.3013090491294861
1667255124716587800,2.822587890625,-0.1398116797208786,0.17569997906684875,0.28848087787628174
1667255124719067000,2.82506689453125,-0.1404225379228592,0.1781434416770935,0.27748534083366394
1667255124721546200,2.827546142578125,-0.14225514233112335,0.18119776248931885,0.2689332067966461
1667255124724025600,2.830025634765625,-0.14103341102600098,0.18547381460666656,0.26099199056625366
1667255124726504700,2.832504638671875,-0.14103341102600098,0.19097159802913666,0.2536616027355194
1667255124728984000,2.834984130859375,-0.13858994841575623,0.1989128440618515,0.24999640882015228
1667255124731463400,2.83746337890625,-0.13858994841575623,0.20685409009456635,0.24816381931304932
1667255124733942500,2.839942626953125,-0.13920080661773682,0.21235187351703644,0.24694208800792694
1667255124736422000,2.842421875,-0.13675735890865326,0.2190713882446289,0.24755294620990753
1667255124738901200,2.8449013671875,-0.13736821711063385,0.22640176117420197,0.2487746775150299
1667255124741380400,2.84738037109375,-0.13736821711063385,0.23067781329154968,0.24999640882015228
1667255124743859700,2.849859619140625,-0.13614648580551147,0.235564723610878,0.25182899832725525
1667255124746338800,2.8523388671875,-0.13797907531261444,0.23678645491600037,0.2530507445335388
1667255124748818200,2.854818115234375,-0.13797907531261444,0.2343430072069168,0.25549420714378357
1667255124751297500,2.857297607421875,-0.13675735890865326,0.23312127590179443,0.25610506534576416
1667255124753776600,2.859776611328125,-0.13553562760353088,0.22701261937618256,0.25732678174972534
1667255124756256000,2.862256103515625,-0.1343138962984085,0.22151483595371246,0.25671592354774475
1667255124758735400,2.8647353515625,-0.12820523977279663,0.21662792563438416,0.25182899832725525
1667255124761214500,2.86721435546875,-0.12026400119066238,0.21051926910877228,0.24816381931304932
1667255124763693800,2.86969384765625,-0.11049016565084457,0.20196716487407684,0.24083344638347626
1667255124766173200,2.872173095703125,-0.09949459880590439,0.19280420243740082,0.23472478985786438
1667255124768652300,2.87465234375,-0.08483384549617767,0.18058690428733826,0.22617268562316895
1667255124771131600,2.877131591796875,-0.07017309218645096,0.1683696061372757,0.2182314395904541
1667255124773611000,2.879611083984375,-0.05367974191904068,0.15431971848011017,0.21029019355773926
1667255124776090000,2.882090087890625,-0.03535379841923714,0.14149154722690582,0.20173808932304382
1667255124778569500,2.884569580078125,-0.019471315667033195,0.1274416595697403,0.19501857459545135
1667255124781048800,2.887048828125,-0.0023671009112149477,0.11461350321769714,0.1876882016658783
1667255124783528000,2.88952783203125,0.014737112447619438,0.10483966767787933,0.18402300775051117
1667255124786007300,2.89200732421875,0.03000873140990734,0.09567669779062271,0.18280129134655
1667255124788486700,2.894486572265625,0.04650207981467247,0.08712458610534668,0.18463388085365295
1667255124790965800,2.8969658203125,0.06177370250225067,0.07918334752321243,0.1876882016658783
1667255124793445000,2.899445068359375,0.07765618711709976,0.07124210149049759,0.19379685819149017
1667255124795924200,2.90192431640625,0.0910952091217041,0.0651334598660469,0.19990549981594086
1667255124798403600,2.904403564453125,0.10453423857688904,0.059635672718286514,0.20723587274551392
1667255124800883000,2.906883056640625,0.11736239492893219,0.05108356848359108,0.2182314395904541
1667255124803362000,2.909362060546875,0.12896881997585297,0.043753188103437424,0.22739441692829132
1667255124805841400,2.91184130859375,0.1375209391117096,0.036422811448574066,0.2390008419752121
1667255124808320800,2.91432080078125,0.14485131204128265,0.029703300446271896,0.2487746775150299
1667255124810799900,2.9167998046875,0.1521816849708557,0.02237292192876339,0.2597702443599701
1667255124813279200,2.919279296875,0.1582903414964676,0.01565340906381607,0.2695440948009491
1667255124815758600,2.921758544921875,0.16134466230869293,0.008323032408952713,0.27809619903564453
1667255124818237700,2.92423779296875,0.1631772518157959,-0.000839939049910754,0.2860374450683594
1667255124820717000,2.926717041015625,0.1625663936138153,-0.009392046369612217,0.2964221239089966
1667255124823196400,2.929196533203125,0.16195552051067352,-0.0191658828407526,0.30253079533576965
1667255124825675500,2.931675537109375,0.15645773708820343,-0.028328854590654373,0.3098611533641815
1667255124828155000,2.93415478515625,0.1521816849708557,-0.03871355578303337,0.31780239939689636
1667255124830634200,2.93663427734375,0.14546217024326324,-0.04909825697541237,0.32452189922332764
1667255124833113300,2.93911328125,0.13935352861881256,-0.06131555140018463,0.3324631452560425
1667255124835592700,2.9415927734375,0.13080142438411713,-0.07231111824512482,0.33979353308677673
1667255124838072000,2.944072021484375,0.12469277530908585,-0.08391755074262619,0.3452913165092468
1667255124840551200,2.94655126953125,0.116751529276371,-0.09674570709466934,0.3513999581336975
1667255124843030500,2.949030517578125,0.11125374585390091,-0.10835213959217072,0.3556760251522064
1667255124845510000,2.951510009765625,0.10575596243143082,-0.12179116904735565,0.356286883354187
1667255124847989000,2.953989013671875,0.10025817900896072,-0.1346193253993988,0.3568977415561676
1667255124850468400,2.95646826171875,0.09720385819673538,-0.14683662354946136,0.35445427894592285
1667255124852947500,2.958947509765625,0.09292780607938766,-0.15783219039440155,0.3507890999317169
1667255124855426800,2.9614267578125,0.0910952091217041,-0.16760602593421936,0.34834563732147217
1667255124857906200,2.96390625,0.08865175396203995,-0.17371466755867004,0.34345871210098267
1667255124860385300,2.96638525390625,0.08804088830947876,-0.17799071967601776,0.3367392122745514
1667255124862864600,2.96886474609375,0.08865175396203995,-0.1804341822862625,0.3324631452560425
1667255124865344000,2.971343994140625,0.0910952091217041,-0.18226677179336548,0.3269653618335724
1667255124867823000,2.973822998046875,0.09842558950185776,-0.1816559135913849,0.32391104102134705
1667255124870302500,2.976302490234375,0.10453423857688904,-0.1816559135913849,0.32330018281936646
1667255124872781800,2.97878173828125,0.11491893976926804,-0.17982332408428192,0.3202458620071411
1667255124875261000,2.981260986328125,0.12469277530908585,-0.17982332408428192,0.31902414560317993
1667255124877740300,2.983740234375,0.13507747650146484,-0.17860159277915955,0.3165806829929352
1667255124880219600,2.9862197265625,0.14485131204128265,-0.17310380935668945,0.3116937577724457
1667255124882698800,2.98869873046875,0.14973822236061096,-0.16821688413619995,0.30741769075393677
1667255124885178000,2.99117822265625,0.15645773708820343,-0.16149736940860748,0.30253079533576965
1667255124887657500,2.993657470703125,0.1576794683933258,-0.15416699647903442,0.29153522849082947
1667255124890136600,2.996136474609375,0.1582903414964676,-0.1498909443616867,0.2811505198478699
1667255124892616000,2.998615966796875,0.15890119969844818,-0.145614892244339,0.2689332067966461
1667255124895095300,3.00109521484375,0.15951207280158997,-0.14256057143211365,0.2530507445335388
1667255124897574400,3.003574462890625,0.15645773708820343,-0.1401171088218689,0.2390008419752121
1667255124900053800,3.0060537109375,0.1534034162759781,-0.1352301836013794,0.22434009611606598
1667255124902533000,3.008533203125,0.14851650595664978,-0.12545634806156158,0.2078467458486557
1667255124905012200,3.01101220703125,0.1430187225341797,-0.11140646785497665,0.1931859850883484
1667255124907491600,3.01349169921875,0.13507747650146484,-0.093691386282444,0.17974695563316345
1667255124909971000,3.015970947265625,0.12713623046875,-0.07353284955024719,0.16569706797599792
1667255124912450000,3.018449951171875,0.11858412623405457,-0.049709122627973557,0.15286891162395477
1667255124914929400,3.020929443359375,0.11064288020133972,-0.0191658828407526,0.14004075527191162
1667255124917408800,3.02340869140625,0.10514509677886963,0.015042545273900032,0.12782345712184906
1667255124919888000,3.025887939453125,0.10209077596664429,0.04802924394607544,0.11255183815956116
1667255124922367200,3.0283671875,0.09842558950185776,0.08040507882833481,0.09911280870437622
1667255124924846600,3.0308466796875,0.09292780607938766,0.1115591824054718,0.08384118974208832
1667255124927325700,3.03332568359375,0.08926261961460114,0.13904809951782227,0.06795870512723923
1667255124929805000,3.03580517578125,0.08254310488700867,0.16592614352703094,0.052076224237680435
1667255124932284400,3.038284423828125,0.0758235901594162,0.1885281354188919,0.036804601550102234
1667255124934763500,3.040763427734375,0.06788235157728195,0.21174100041389465,0.02458730712532997
1667255124937243000,3.043242919921875,0.060551971197128296,0.23128867149353027,0.008093958720564842
1667255124939722200,3.04572216796875,0.051389001309871674,0.2502254843711853,-0.003512472379952669
1667255124942201300,3.048201416015625,0.04283689334988594,0.26855143904685974,-0.012675444595515728
1667255124944680700,3.0506806640625,0.03000873140990734,0.2862665057182312,-0.021227551624178886
1667255124947159800,3.053159912109375,0.018402300775051117,0.3027598559856415,-0.025503603741526604
1667255124949639200,3.05563916015625,0.004352411720901728,0.3223075270652771,-0.028557928279042244
1667255124952118500,3.058118408203125,-0.009697478264570236,0.33941173553466797,-0.02672533318400383
1667255124954597600,3.06059765625,-0.02130390889942646,0.35529422760009766,-0.021227551624178886
1667255124957077000,3.063076904296875,-0.03413207083940506,0.3693441152572632,-0.013897174037992954
1667255124959556400,3.065556396484375,-0.04451677203178406,0.37545275688171387,-0.007177661173045635
1667255124962035500,3.068035400390625,-0.05306887626647949,0.37606361508369446,0.005039634648710489
1667255124964514800,3.070514892578125,-0.061620984226465225,0.3730092942714691,0.017867794260382652
1667255124966994200,3.072994140625,-0.06772962957620621,0.36506807804107666,0.033139415085315704
1667255124969473300,3.075473388671875,-0.07139482349157333,0.3534616231918335,0.04841103404760361
1667255124971952600,3.07795263671875,-0.07628174126148224,0.3388008773326874,0.0642935186624527
1667255124974432000,3.080431884765625,-0.07933606207370758,0.32047492265701294,0.08017600327730179
1667255124976911000,3.0829111328125,-0.07994692772626877,0.2960403561592102,0.09728021919727325
