time,seconds_elapsed,z,y,x
1667255121964604400,0.0706044921875,0.12950333952903748,-0.39217519760131836,0.09712749719619751
1667255121967083500,0.07308349609375,0.13072505593299866,-0.3909534513950348,0.08124501258134842
1667255121969563000,0.07556298828125,0.12278381735086441,-0.39400777220726013,0.06597339361906052
1667255121972042200,0.078042236328125,0.10629047453403473,-0.4056142270565033,0.050090912729501724
1667255121974521300,0.080521240234375,0.09101885557174683,-0.43493571877479553,0.03298669680953026
1667255121977000700,0.083000732421875,0.07513637095689774,-0.47097674012184143,0.015271619893610477
1667255121979479800,0.085479736328125,0.053756099194288254,-0.5088503360748291,-0.0030543238390237093
1667255121981959200,0.087959228515625,0.026878049597144127,-0.5467239618301392,-0.01588248461484909
1667255121984438500,0.0904384765625,-0.001221729558892548,-0.5809323787689209,-0.020769402384757996
1667255121986917600,0.092917724609375,-0.029932374134659767,-0.6084213256835938,-0.01893680728971958
1667255121989397000,0.09539697265625,-0.05803215503692627,-0.6346884965896606,-0.006719512399286032
1667255121991876400,0.09787646484375,-0.0824667438864708,-0.6621774435043335,0.015271619893610477
1667255121994355500,0.10035546875,-0.10629047453403473,-0.6872228980064392,0.043982263654470444
1667255121996834800,0.102834716796875,-0.13011419773101807,-0.7116574645042419,0.08002328872680664
1667255121999314000,0.10531396484375,-0.15088360011577606,-0.7287616729736328,0.12217295914888382
1667255122001793300,0.107793212890625,-0.17043127119541168,-0.7391464114189148,0.16615521907806396
1667255122004272600,0.110272705078125,-0.1905898153781891,-0.7434224486351013,0.21319180727005005
1667255122006751700,0.112751708984375,-0.21135921776294708,-0.740368127822876,0.2565632164478302
1667255122009231000,0.115231201171875,-0.2315177470445633,-0.7287616729736328,0.2968802750110626
1667255122011710200,0.117710205078125,-0.2467893660068512,-0.7104357481002808,0.33597561717033386
1667255122014189600,0.120189453125,-0.2577849328517914,-0.6896663308143616,0.3695732057094574
1667255122016669000,0.1226689453125,-0.2657261788845062,-0.6640099883079529,0.4013381600379944
1667255122019148000,0.12514794921875,-0.2675587832927704,-0.6371319890022278,0.4312705397605896
1667255122021627400,0.12762744140625,-0.2626718580722809,-0.6108647584915161,0.4557051360607147
1667255122024106500,0.1301064453125,-0.25534147024154663,-0.5888736248016357,0.4734202027320862
1667255122026585900,0.1325859375,-0.24434591829776764,-0.5705476999282837,0.49113526940345764
1667255122029065200,0.135065185546875,-0.2309068888425827,-0.5601630210876465,0.5045742988586426
1667255122031544300,0.13754443359375,-0.21868959069252014,-0.5558869242668152,0.5131264328956604
1667255122034023700,0.140023681640625,-0.20463970303535461,-0.5564978122711182,0.5222893953323364
1667255122036503000,0.1425029296875,-0.1893680840730667,-0.5632173418998718,0.5271763205528259
1667255122038982100,0.144982177734375,-0.17531819641590118,-0.5797106623649597,0.5290089249610901
1667255122041461500,0.14746142578125,-0.16004657745361328,-0.6004800796508789,0.5302306413650513
1667255122043940600,0.149940673828125,-0.13988803327083588,-0.627968966960907,0.5296197533607483
1667255122046420000,0.152419921875,-0.11484257876873016,-0.6633991599082947,0.5241219997406006
1667255122048899300,0.1548994140625,-0.08613193035125732,-0.7049379348754883,0.5198459029197693
1667255122051378400,0.15737841796875,-0.05803215503692627,-0.7538071274757385,0.5174024701118469
1667255122053857800,0.15985791015625,-0.03237583488225937,-0.8075632452964783,0.5119046568870544
1667255122056337000,0.1623369140625,-0.008552107028663158,-0.8655954003334045,0.5112938284873962
1667255122058816300,0.164816162109375,0.014049889519810677,-0.9211840629577637,0.5131264328956604
1667255122061295600,0.167295654296875,0.03543015569448471,-0.9779945015907288,0.5180133581161499
1667255122063774700,0.169774658203125,0.05558869615197182,-1.033583164215088,0.5283980369567871
1667255122066254000,0.172254150390625,0.07024945318698883,-1.0916153192520142,0.5369501113891602
1667255122068733200,0.174733154296875,0.08307760953903198,-1.1533126831054688,0.545502245426178
1667255122071212500,0.177212646484375,0.09529490768909454,-1.2143992185592651,0.554665207862854
1667255122073692000,0.17969189453125,0.10323614627122879,-1.2705987691879272,0.5595521330833435
1667255122076171000,0.1821708984375,0.10567960888147354,-1.3176352977752686,0.5619956254959106
1667255122078650400,0.184650390625,0.09957095980644226,-1.3548980951309204,0.56382817029953
1667255122081129700,0.187129638671875,0.09162971377372742,-1.3756674528121948,0.554665207862854
1667255122083608800,0.18960888671875,0.07757982611656189,-1.3799434900283813,0.546113133430481
1667255122086088200,0.192088134765625,0.06230820715427399,-1.368947982788086,0.5320632457733154
1667255122088567300,0.1945673828125,0.04459312930703163,-1.3469568490982056,0.516791582107544
1667255122091046700,0.197046630859375,0.027488915249705315,-1.3164136409759521,0.5045742988586426
1667255122093526000,0.199526123046875,0.01282816007733345,-1.2736530303955078,0.4880809485912323
1667255122096005000,0.202005126953125,-0.002443459117785096,-1.2192860841751099,0.471587598323822
1667255122098484500,0.204484375,-0.01954767294228077,-1.1502584218978882,0.45387253165245056
1667255122100963800,0.2069638671875,-0.03481929376721382,-1.0677915811538696,0.43310311436653137
1667255122103443000,0.20944287109375,-0.04886918142437935,-0.9810488224029541,0.4062250852584839
1667255122105922300,0.21192236328125,-0.05864302068948746,-0.8875865340232849,0.3750709891319275
1667255122108401400,0.2144013671875,-0.06536252796649933,-0.7929024696350098,0.3347539007663727
1667255122110880800,0.216880859375,-0.06780599057674408,-0.6927206516265869,0.2883281707763672
1667255122113360100,0.219360107421875,-0.0665842592716217,-0.5864301919937134,0.23884813487529755
1667255122115839200,0.221839111328125,-0.0616973415017128,-0.47464191913604736,0.18875721096992493
1667255122118318600,0.224318603515625,-0.053145237267017365,-0.36285367608070374,0.13988803327083588
1667255122120798000,0.2267978515625,-0.043982263654470444,-0.258395791053772,0.08979712426662445
1667255122123277000,0.229277099609375,-0.0360410213470459,-0.16065743565559387,0.040317077189683914
1667255122125756400,0.23175634765625,-0.02871064469218254,-0.07269290834665298,-0.0054977829568088055
1667255122128235500,0.234235595703125,-0.020158538594841957,0.0030543238390237093,-0.047036588191986084
1667255122130715000,0.23671484375,-0.011606430634856224,0.06414080411195755,-0.08307760953903198
1667255122133194200,0.2391943359375,-0.003665188793092966,0.10934479534626007,-0.11362084746360779
1667255122135673300,0.24167333984375,0.001832594396546483,0.13744457066059113,-0.1386663019657135
1667255122138152700,0.244152587890625,0.002443459117785096,0.1490510106086731,-0.15699224174022675
1667255122140631800,0.2466318359375,0,0.14538581669330597,-0.17715078592300415
1667255122143111200,0.249111083984375,-0.006108647678047419,0.1282816082239151,-0.18875721096992493
1667255122145590500,0.251590576171875,-0.01954767294228077,0.10018182545900345,-0.19364413619041443
1667255122148069600,0.254069580078125,-0.04153880476951599,0.06291907280683517,-0.19425499439239502
1667255122150549000,0.256549072265625,-0.07147117704153061,0.015271619893610477,-0.18692462146282196
1667255122153028000,0.259028076171875,-0.10201441496610641,-0.05070177838206291,-0.17043127119541168
1667255122155507500,0.261507568359375,-0.1337793916463852,-0.12767073512077332,-0.1490510106086731
1667255122157986800,0.26398681640625,-0.1594357043504715,-0.21197007596492767,-0.11178825795650482
1667255122160466000,0.2664658203125,-0.18264856934547424,-0.30115634202957153,-0.06597339361906052
1667255122162945300,0.2689453125,-0.20219624042510986,-0.3946186602115631,-0.01282816007733345
1667255122165424400,0.27142431640625,-0.21868959069252014,-0.49052441120147705,0.05070177838206291
1667255122167903700,0.27390380859375,-0.235793799161911,-0.583375871181488,0.11972949653863907
1667255122170383000,0.276383056640625,-0.2516762912273407,-0.6719512343406677,0.18875721096992493
1667255122172862200,0.2788623046875,-0.2657261788845062,-0.748920202255249,0.2620609998703003
1667255122175341600,0.281341552734375,-0.2816086709499359,-0.8167262077331543,0.328645259141922
1667255122177821000,0.283821044921875,-0.2974911332130432,-0.8772017955780029,0.39400777220726013
1667255122180300000,0.286300048828125,-0.3170388340950012,-0.9279035925865173,0.4508182108402252
1667255122182779400,0.288779296875,-0.3402516841888428,-0.9669989347457886,0.4984656572341919
1667255122185258500,0.291258544921875,-0.36712974309921265,-0.9950987100601196,0.536339282989502
1667255122187737900,0.29373779296875,-0.39278605580329895,-1.0134246349334717,0.564439058303833
1667255122190217200,0.29621728515625,-0.4166097939014435,-1.0225876569747925,0.5772672295570374
1667255122192696300,0.2986962890625,-0.43860089778900146,-1.0250310897827148,0.5778780579566956
1667255122195175700,0.30117578125,-0.4569268524646759,-1.018311619758606,0.5662716627120972
1667255122197655000,0.303655029296875,-0.4728093445301056,-1.0054833889007568,0.5442805290222168
1667255122200134100,0.306134033203125,-0.48502662777900696,-0.988990068435669,0.5131264328956604
1667255122202613500,0.308613525390625,-0.49418962001800537,-0.9712749719619751,0.47464191913604736
1667255122205092900,0.3110927734375,-0.5021308660507202,-0.9480621218681335,0.42821621894836426
1667255122207572000,0.313572021484375,-0.5088503360748291,-0.924238383769989,0.38240134716033936
1667255122210051300,0.31605126953125,-0.5174024701118469,-0.8985821008682251,0.3341430425643921
1667255122212530400,0.318530517578125,-0.5253437161445618,-0.8729257583618164,0.29016077518463135
1667255122215009800,0.321009765625,-0.5369501113891602,-0.8460476994514465,0.2461785078048706
1667255122217489200,0.3234892578125,-0.5510000586509705,-0.8191696405410767,0.20341797173023224
1667255122219968300,0.32596826171875,-0.5674933791160583,-0.7953459620475769,0.1649334877729416
1667255122222447600,0.328447509765625,-0.5858193039894104,-0.7733548283576965,0.12583814561367035
1667255122224926700,0.3309267578125,-0.6041452884674072,-0.7562506198883057,0.08979712426662445
1667255122227406000,0.333406005859375,-0.6218603253364563,-0.7434224486351013,0.05803215503692627
1667255122229885400,0.335885498046875,-0.6414080262184143,-0.7391464114189148,0.029932374134659767
1667255122232364500,0.338364501953125,-0.6597339510917664,-0.7373138070106506,0.0030543238390237093
1667255122234844000,0.340843994140625,-0.676227331161499,-0.7440332770347595,-0.01893680728971958
1667255122237323000,0.343322998046875,-0.6927206516265869,-0.7507528066635132,-0.0409279391169548
1667255122239802400,0.34580224609375,-0.7037162184715271,-0.7574723362922668,-0.05803215503692627
1667255122242281700,0.34828173828125,-0.7116574645042419,-0.7641918659210205,-0.06841685622930527
1667255122244760800,0.3507607421875,-0.7165443897247314,-0.7696896195411682,-0.08124501258134842
1667255122247240200,0.353240234375,-0.7195987105369568,-0.7764091491699219,-0.08796452730894089
1667255122249719300,0.35571923828125,-0.7183769941329956,-0.7831286191940308,-0.09162971377372742
1667255122252198700,0.35819873046875,-0.7159335017204285,-0.7904590368270874,-0.09651663154363632
1667255122254678000,0.360677978515625,-0.7128791809082031,-0.7984002828598022,-0.09834922850131989
1667255122257157000,0.3631572265625,-0.7061597108840942,-0.8063415288925171,-0.10140355676412582
1667255122259636500,0.365636474609375,-0.6976075768470764,-0.8155044913291931,-0.10323614627122879
1667255122262115800,0.36811572265625,-0.6890554428100586,-0.8271108865737915,-0.1026252806186676
1667255122264595000,0.370594970703125,-0.6780598759651184,-0.8436042666435242,-0.10384701192378998
1667255122267074300,0.37307421875,-0.6652317643165588,-0.8594867587089539,-0.10384701192378998
1667255122269553400,0.375553466796875,-0.6511818766593933,-0.8741474747657776,-0.10384701192378998
1667255122272032800,0.37803271484375,-0.6346884965896606,-0.8888082504272461,-0.10567960888147354
1667255122274512100,0.38051220703125,-0.6163625717163086,-0.8979712128639221,-0.10873392969369888
1667255122276991200,0.3829912109375,-0.5980366468429565,-0.9107993841171265,-0.10873392969369888
1667255122279470600,0.385470703125,-0.5821541547775269,-0.9224058389663696,-0.11178825795650482
1667255122281949700,0.38794970703125,-0.5662716627120972,-0.9334014058113098,-0.1185077652335167
1667255122284429000,0.390428955078125,-0.5497782826423645,-0.9486730098724365,-0.12217295914888382
1667255122286908400,0.392908447265625,-0.536339282989502,-0.9657772183418274,-0.12644900381565094
1667255122289387500,0.395387451171875,-0.5229002237319946,-0.9822705388069153,-0.13561198115348816
1667255122291867000,0.397866943359375,-0.5082395076751709,-0.998153030872345,-0.143553227186203
1667255122294346200,0.40034619140625,-0.4917461574077606,-1.0146464109420776,-0.15210533142089844
1667255122296825300,0.402825439453125,-0.47525280714035034,-1.0323615074157715,-0.16187916696071625
1667255122299304700,0.4053046875,-0.4612029194831848,-1.045189619064331,-0.16798780858516693
1667255122301783800,0.40778369140625,-0.44470956921577454,-1.0604612827301025,-0.17348559200763702
1667255122304263200,0.41026318359375,-0.43310311436653137,-1.0739002227783203,-0.1802051067352295
1667255122306742500,0.412742431640625,-0.4202749729156494,-1.091004490852356,-0.18325942754745483
1667255122309221600,0.4152216796875,-0.4068359434604645,-1.1123847961425781,-0.18631376326084137
1667255122311701000,0.417700927734375,-0.39278605580329895,-1.135597586631775,-0.1899789422750473
1667255122314180400,0.420180419921875,-0.3756818473339081,-1.1618647575378418,-0.1948658674955368
1667255122316659500,0.422659423828125,-0.3591884970664978,-1.1948515176773071,-0.2009745091199875
1667255122319138800,0.425138916015625,-0.3426951467990875,-1.2345577478408813,-0.2107483446598053
1667255122321618000,0.427617919921875,-0.3274235129356384,-1.2724313735961914,-0.2211330533027649
1667255122324097300,0.43009716796875,-0.31154105067253113,-1.3041963577270508,-0.23762640357017517
1667255122326576600,0.43257666015625,-0.2938259541988373,-1.3304635286331177,-0.2516762912273407
1667255122329055700,0.4350556640625,-0.2809978127479553,-1.3518437147140503,-0.2724456787109375
1667255122331535000,0.43753515625,-0.26939135789871216,-1.3652827739715576,-0.2938259541988373
1667255122334014200,0.44001416015625,-0.2620609998703003,-1.370169758796692,-0.3176496922969818
1667255122336493600,0.44249365234375,-0.26022839546203613,-1.3658936023712158,-0.3451386094093323
1667255122338973000,0.444972900390625,-0.2620609998703003,-1.349400281906128,-0.3756818473339081
1667255122341452000,0.4474521484375,-0.2706131041049957,-1.321911334991455,-0.4062250852584839
1667255122343931400,0.449931396484375,-0.2834412455558777,-1.2797616720199585,-0.4373791813850403
1667255122346410800,0.45241064453125,-0.30115634202957153,-1.22234046459198,-0.46547895669937134
1667255122348889900,0.454889892578125,-0.32009315490722656,-1.1490366458892822,-0.49541133642196655
1667255122351369200,0.457369140625,-0.34147340059280396,-1.0677915811538696,-0.5229002237319946
1667255122353848300,0.459848388671875,-0.3640754222869873,-0.9798271059989929,-0.5491674542427063
1667255122356327700,0.46232763671875,-0.3860665261745453,-0.8881973624229431,-0.5748237371444702
1667255122358807000,0.46480712890625,-0.4062250852584839,-0.7984002828598022,-0.5998691916465759
1667255122361286100,0.4672861328125,-0.4251618981361389,-0.7141009569168091,-0.6218603253364563
1667255122363765500,0.469765625,-0.43860089778900146,-0.6352993845939636,-0.6426297426223755
1667255122366244600,0.47224462890625,-0.4477638900279999,-0.5668824911117554,-0.6591231226921082
1667255122368724000,0.474723876953125,-0.44959646463394165,-0.5070177912712097,-0.6719512343406677
1667255122371203300,0.477203369140625,-0.4459312856197357,-0.45875945687294006,-0.6829468011856079
1667255122373682400,0.479682373046875,-0.4379900395870209,-0.4257727563381195,-0.6921098232269287
1667255122376161800,0.482161865234375,-0.42455101013183594,-0.4068359434604645,-0.7037162184715271
1667255122378641000,0.484640869140625,-0.4043924808502197,-0.3958403766155243,-0.7128791809082031
1667255122381120300,0.487120361328125,-0.38301220536231995,-0.3952295184135437,-0.7232639193534851
1667255122383599600,0.489599609375,-0.3591884970664978,-0.4068359434604645,-0.7324268817901611
1667255122386078700,0.49207861328125,-0.33536475896835327,-0.42821621894836426,-0.7360920310020447
1667255122388558000,0.49455810546875,-0.31581708788871765,-0.4526508152484894,-0.740368127822876
1667255122391037400,0.497037353515625,-0.2968802750110626,-0.48441576957702637,-0.7342594861984253
1667255122393516500,0.4995166015625,-0.2828303873538971,-0.5192350745201111,-0.7250964641571045
1667255122395996000,0.501995849609375,-0.2761108875274658,-0.5510000586509705,-0.7122683525085449
1667255122398475000,0.50447509765625,-0.2712239623069763,-0.5766563415527344,-0.6939423680305481
1667255122400954400,0.506954345703125,-0.2724456787109375,-0.6004800796508789,-0.6743947267532349
1667255122403433700,0.509433837890625,-0.27000224590301514,-0.6212494969367981,-0.6493492722511292
1667255122405912800,0.511912841796875,-0.27000224590301514,-0.638353705406189,-0.6212494969367981
1667255122408392200,0.51439208984375,-0.26939135789871216,-0.6536253094673157,-0.5900954008102417
1667255122410871600,0.51687158203125,-0.26939135789871216,-0.6676751971244812,-0.5589412450790405
1667255122413350700,0.5193505859375,-0.26450446248054504,-0.6786707639694214,-0.5271763205528259
1667255122415830000,0.521830078125,-0.26022839546203613,-0.6866120100021362,-0.49541133642196655
1667255122418309000,0.52430908203125,-0.2528980076313019,-0.6884446144104004,-0.4667007029056549
1667255122420788500,0.52678857421875,-0.24434591829776764,-0.6872228980064392,-0.43982264399528503
1667255122423267800,0.529267822265625,-0.22968515753746033,-0.6792816519737244,-0.4172206521034241
1667255122425747000,0.531746826171875,-0.21258094906806946,-0.6682860851287842,-0.3964512348175049
1667255122428226300,0.534226318359375,-0.19181154668331146,-0.656679630279541,-0.3842339515686035
1667255122430705700,0.53670556640625,-0.16676609218120575,-0.6456840634346008,-0.3744601011276245
1667255122433184800,0.539184814453125,-0.14172062277793884,-0.6340776681900024,-0.37323838472366333
1667255122435664100,0.5416640625,-0.11667517572641373,-0.6206386089324951,-0.37690356373786926
1667255122438143200,0.544143310546875,-0.09346231073141098,-0.6047561168670654,-0.38789913058280945
1667255122440622600,0.54662255859375,-0.07452550530433655,-0.5839866995811462,-0.4050033390522003
1667255122443102000,0.54910205078125,-0.056810423731803894,-0.5656607747077942,-0.43371400237083435
1667255122445581000,0.5515810546875,-0.04153880476951599,-0.5436696410179138,-0.472198486328125
1667255122448060400,0.554060302734375,-0.029932374134659767,-0.5222893953323364,-0.5143481492996216
1667255122450539500,0.55653955078125,-0.01893680728971958,-0.5021308660507202,-0.5705476999282837
1667255122453019000,0.559018798828125,-0.006108647678047419,-0.4838049113750458,-0.6291907429695129
1667255122455498200,0.561498291015625,0.01282816007733345,-0.471587598323822,-0.695164144039154
1667255122457977300,0.563977294921875,0.03298669680953026,-0.4557051360607147,-0.7672461867332458
1667255122460456700,0.566456787109375,0.05558869615197182,-0.4422661066055298,-0.8442151546478271
1667255122462935800,0.568935791015625,0.08307760953903198,-0.43371400237083435,-0.924849271774292
1667255122465415200,0.571415283203125,0.11239911615848541,-0.43432486057281494,-1.0067051649093628
1667255122467894500,0.57389453125,0.1441640853881836,-0.44348782300949097,-1.08978271484375
1667255122470373600,0.57637353515625,0.17653992772102356,-0.4575377106666565,-1.1716386079788208
1667255122472853000,0.57885302734375,0.20952661335468292,-0.4770853817462921,-1.2534945011138916
1667255122475332000,0.58133203125,0.24373504519462585,-0.4929678738117218,-1.3310743570327759
1667255122477811500,0.5838115234375,0.277332603931427,-0.5027416944503784,-1.4074324369430542
1667255122480290800,0.586290771484375,0.31154105067253113,-0.5112938284873962,-1.4746276140213013
1667255122482770000,0.58877001953125,0.34636032581329346,-0.5210676789283752,-1.5375466346740723
1667255122485249300,0.591249267578125,0.37751442193984985,-0.5210676789283752,-1.5943571329116821
1667255122487728600,0.593728759765625,0.40866854786872864,-0.5192350745201111,-1.64566969871521
1667255122490207700,0.596207763671875,0.4379900395870209,-0.5112938284873962,-1.6927063465118408
1667255122492687000,0.59868701171875,0.4618137776851654,-0.500298261642456,-1.7299690246582031
1667255122495166200,0.601166259765625,0.48013970255851746,-0.48563748598098755,-1.7647883892059326
1667255122497645600,0.6036455078125,0.49113526940345764,-0.46975502371788025,-1.7904446125030518
1667255122500125000,0.606125,0.49663305282592773,-0.44959646463394165,-1.8130466938018799
1667255122502604000,0.60860400390625,0.4935787320137024,-0.41783151030540466,-1.831372618675232
1667255122505083400,0.61108349609375,0.4862483739852905,-0.37323838472366333,-1.8442007303237915
1667255122507562800,0.613562744140625,0.472198486328125,-0.32131487131118774,-1.852752923965454
1667255122510041900,0.616041748046875,0.45509424805641174,-0.27000224590301514,-1.8619158267974854
1667255122512521200,0.618521240234375,0.4324922561645508,-0.22418737411499023,-1.8619158267974854
1667255122515000300,0.621000244140625,0.40866854786872864,-0.18203771114349365,-1.858250617980957
1667255122517479700,0.623479736328125,0.38301220536231995,-0.14538581669330597,-1.8521419763565063
1667255122519959000,0.625958984375,0.3500255048274994,-0.10873392969369888,-1.8393138647079468
1667255122522438100,0.628438232421875,0.31459537148475647,-0.07391463965177536,-1.8222095966339111
1667255122524917500,0.63091748046875,0.2779434621334076,-0.03481929376721382,-1.8008294105529785
1667255122527396900,0.63339697265625,0.24312418699264526,0.004276053514331579,-1.7751730680465698
1667255122529876000,0.6358759765625,0.20830489695072174,0.040317077189683914,-1.747684121131897
1667255122532355300,0.638355224609375,0.17043127119541168,0.07147117704153061,-1.71836256980896
1667255122534834400,0.64083447265625,0.1337793916463852,0.0977383628487587,-1.6859867572784424
1667255122537313800,0.643313720703125,0.09346231073141098,0.1185077652335167,-1.6511675119400024
1667255122539793200,0.645793212890625,0.05253437161445618,0.13072505593299866,-1.6132938861846924
1667255122542272300,0.648272216796875,0.012217295356094837,0.1380554437637329,-1.5741984844207764
1667255122544751600,0.650751708984375,-0.033597562462091446,0.14110976457595825,-1.5320488214492798
1667255122547230700,0.653230712890625,-0.0818558782339096,0.143553227186203,-1.4917317628860474
1667255122549710000,0.6557099609375,-0.13133592903614044,0.14049890637397766,-1.4483604431152344
1667255122552189400,0.658189453125,-0.18203771114349365,0.12461641430854797,-1.4062107801437378
1667255122554668500,0.66066845703125,-0.23335035145282745,0.0977383628487587,-1.3634501695632935
1667255122557148000,0.66314794921875,-0.2834412455558777,0.06536252796649933,-1.3182462453842163
1667255122559627000,0.665626953125,-0.33108872175216675,0.023212861269712448,-1.2760965824127197
1667255122562106400,0.6681064453125,-0.379347026348114,-0.02871064469218254,-1.2333359718322754
1667255122564585700,0.670585693359375,-0.4263836145401001,-0.0818558782339096,-1.1893537044525146
1667255122567064800,0.67306494140625,-0.4630354940891266,-0.13561198115348816,-1.1496474742889404
1667255122569544200,0.675544189453125,-0.4978547990322113,-0.18875721096992493,-1.1062761545181274
1667255122572023300,0.678023193359375,-0.5229002237319946,-0.2412915825843811,-1.0665699243545532
1667255122574502700,0.680502685546875,-0.536339282989502,-0.29993459582328796,-1.0262528657913208
1667255122576982000,0.68298193359375,-0.5381718873977661,-0.35735589265823364,-0.9902117848396301
1667255122579461000,0.685461181640625,-0.5351175665855408,-0.4147771894931793,-0.9578359723091125
1667255122581940500,0.6879404296875,-0.5241219997406006,-0.46608981490135193,-0.924238383769989
1667255122584419800,0.690419921875,-0.5076286196708679,-0.5100721120834351,-0.8936951756477356
1667255122586899000,0.69289892578125,-0.48502662777900696,-0.5503891706466675,-0.8674280047416687
1667255122589378300,0.69537841796875,-0.45998117327690125,-0.5894845128059387,-0.8442151546478271
1667255122591857400,0.697857421875,-0.4312705397605896,-0.6255255341529846,-0.8246674537658691
1667255122594336800,0.700336669921875,-0.40255987644195557,-0.6505709886550903,-0.8100066781044006
1667255122596816100,0.702816162109375,-0.37201663851737976,-0.6707295179367065,-0.8008437156677246
1667255122599295200,0.705295166015625,-0.34147340059280396,-0.6847794055938721,-0.7971785664558411
1667255122601774600,0.707774658203125,-0.32009315490722656,-0.6902772188186646,-0.7990111112594604
1667255122604254000,0.71025390625,-0.30115634202957153,-0.6914989352226257,-0.8057306408882141
1667255122606733000,0.712733154296875,-0.2834412455558777,-0.6884446144104004,-0.8185588121414185
1667255122609212400,0.71521240234375,-0.26939135789871216,-0.6866120100021362,-0.8405499458312988
1667255122611691500,0.71769140625,-0.2565632164478302,-0.6872228980064392,-0.8637627959251404
1667255122614171000,0.7201708984375,-0.24740023910999298,-0.6933315396308899,-0.8906408548355103
1667255122616650200,0.722650146484375,-0.24495677649974823,-0.7128791809082031,-0.9187406301498413
1667255122619129300,0.72512939453125,-0.2461785078048706,-0.7348703145980835,-0.9462295174598694
1667255122621608700,0.727608642578125,-0.24923282861709595,-0.7544180154800415,-0.9749401807785034
1667255122624088000,0.730088134765625,-0.2559523284435272,-0.7794634699821472,-0.998763918876648
1667255122626567200,0.732567138671875,-0.2608392536640167,-0.8057306408882141,-1.0207550525665283
1667255122629046500,0.735046630859375,-0.26511532068252563,-0.833219587802887,-1.0403027534484863
1667255122631525600,0.737525634765625,-0.26878049969673157,-0.8625410795211792,-1.0512982606887817
1667255122634005000,0.7400048828125,-0.2718348205089569,-0.8936951756477356,-1.0622938871383667
1667255122636484400,0.742484375,-0.2706131041049957,-0.9175189137458801,-1.071456789970398
1667255122638963500,0.74496337890625,-0.2657261788845062,-0.9370665550231934,-1.0787872076034546
1667255122641442800,0.74744287109375,-0.2626718580722809,-0.9578359723091125,-1.082452416419983
1667255122643922000,0.749921875,-0.258395791053772,-0.9755510687828064,-1.0879502296447754
1667255122646401300,0.7524013671875,-0.2571740746498108,-1.0048725605010986,-1.0934479236602783
1667255122648880600,0.754880615234375,-0.2528980076313019,-1.053130865097046,-1.1044435501098633
1667255122651359700,0.75735986328125,-0.2522871494293213,-1.1117738485336304,-1.1154390573501587
1667255122653839000,0.759839111328125,-0.25350889563560486,-1.1600322723388672,-1.1270455121994019
1667255122656318500,0.762318359375,-0.258395791053772,-1.1936297416687012,-1.138651967048645
1667255122658797600,0.764797607421875,-0.2675587832927704,-1.219896912574768,-1.1545344591140747
1667255122661277000,0.76727685546875,-0.28038692474365234,-1.2333359718322754,-1.1698060035705566
1667255122663756000,0.769756103515625,-0.2968802750110626,-1.2382229566574097,-1.1838558912277222
1667255122666235400,0.7722353515625,-0.3139844834804535,-1.2345577478408813,-1.1979057788848877
1667255122668714800,0.77471484375,-0.33231043815612793,-1.2229512929916382,-1.211344838142395
1667255122671193900,0.77719384765625,-0.3530798554420471,-1.2046253681182861,-1.2229512929916382
1667255122673673200,0.779673095703125,-0.3750709891319275,-1.1808016300201416,-1.2327251434326172
1667255122676152300,0.78215234375,-0.39889469742774963,-1.1575887203216553,-1.2437206506729126
1667255122678631700,0.784631591796875,-0.4196641147136688,-1.1313215494155884,-1.2553271055221558
1667255122681111000,0.787111083984375,-0.43921178579330444,-1.1038326025009155,-1.266933560371399
1667255122683590100,0.789590087890625,-0.4569268524646759,-1.0793980360031128,-1.278540015220642
1667255122686069500,0.792069580078125,-0.4734202027320862,-1.05496346950531,-1.2895355224609375
1667255122688548600,0.794548583984375,-0.4874700903892517,-1.0341941118240356,-1.3005311489105225
1667255122691028000,0.797028076171875,-0.500298261642456,-1.0305289030075073,-1.3103049993515015
1667255122693507300,0.79950732421875,-0.5094612240791321,-1.0360267162322998,-1.3176352977752686
1667255122695986400,0.801986328125,-0.5161807537078857,-1.0476330518722534,-1.3225222826004028
1667255122698465800,0.8044658203125,-0.5204567909240723,-1.0684025287628174,-1.3267983198165894
1667255122700945200,0.806945068359375,-0.5192350745201111,-1.08978271484375,-1.323133111000061
1667255122703424300,0.80942431640625,-0.5247328281402588,-1.1050543785095215,-1.3109158277511597
1667255122705903600,0.811903564453125,-0.5332849621772766,-1.1215476989746094,-1.2944225072860718
1667255122708382700,0.8143828125,-0.5424479246139526,-1.1337649822235107,-1.268766164779663
1667255122710862000,0.816862060546875,-0.5558869242668152,-1.148425817489624,-1.2370011806488037
1667255122713341400,0.819341552734375,-0.5711585879325867,-1.164919137954712,-1.1979057788848877
1667255122715820500,0.821820556640625,-0.5907062292098999,-1.1838558912277222,-1.1545344591140747
1667255122718300000,0.8242998046875,-0.6133082509040833,-1.1936297416687012,-1.1044435501098633
1667255122720779300,0.826779296875,-0.6420188546180725,-1.1948515176773071,-1.0506874322891235
1667255122723258400,0.82925830078125,-0.6743947267532349,-1.186299443244934,-0.9938769936561584
1667255122725737700,0.83173779296875,-0.7086031436920166,-1.1740821599960327,-0.9358448386192322
1667255122728216800,0.834216796875,-0.7476984858512878,-1.1545344591140747,-0.8753692507743835
1667255122730696200,0.8366962890625,-0.7910698652267456,-1.128878116607666,-0.8118392825126648
1667255122733175600,0.839175537109375,-0.8362739086151123,-1.1032217741012573,-0.7531962990760803
1667255122735654700,0.841654541015625,-0.8826996088027954,-1.0739002227783203,-0.6921098232269287
1667255122738134000,0.844134033203125,-0.9272927641868591,-1.045189619064331,-0.6322450637817383
1667255122740613400,0.84661328125,-0.9718858599662781,-1.0195332765579224,-0.5760455131530762
1667255122743092500,0.849092529296875,-1.0158681869506836,-0.9963204264640808,-0.5216785073280334
1667255122745571800,0.85157177734375,-1.0586286783218384,-0.9718858599662781,-0.47097674012184143
1667255122748051000,0.854051025390625,-1.094058871269226,-0.9486730098724365,-0.42455101013183594
1667255122750530300,0.8565302734375,-1.1246020793914795,-0.924849271774292,-0.3811796307563782
1667255122753009700,0.859009765625,-1.1496474742889404,-0.8924734592437744,-0.3439168632030487
1667255122755488800,0.86148876953125,-1.1722495555877686,-0.8497129082679749,-0.3078758418560028
1667255122757968100,0.863968017578125,-1.1905754804611206,-0.7971785664558411,-0.2767217457294464
1667255122760447200,0.866447265625,-1.204014539718628,-0.7385355234146118,-0.24923282861709595
1667255122762926600,0.868926513671875,-1.2156208753585815,-0.676227331161499,-0.22418737411499023
1667255122765406000,0.871406005859375,-1.2229512929916382,-0.6090322136878967,-0.20402882993221283
1667255122767885000,0.873885009765625,-1.2272273302078247,-0.5400044918060303,-0.18753549456596375
1667255122770364400,0.876364501953125,-1.2290599346160889,-0.4734202027320862,-0.1740964651107788
1667255122772843500,0.878843505859375,-1.2302817106246948,-0.41233372688293457,-0.164322629570961
1667255122775323000,0.881322998046875,-1.2302817106246948,-0.3591884970664978,-0.1588248461484909
1667255122777802200,0.88380224609375,-1.227838158607483,-0.31520622968673706,-0.15515965223312378
1667255122780281300,0.88628125,-1.2260055541992188,-0.27855435013771057,-0.15699224174022675
1667255122782760700,0.8887607421875,-1.2229512929916382,-0.24495677649974823,-0.16065743565559387
1667255122785239800,0.89123974609375,-1.2192860841751099,-0.21685700118541718,-0.16615521907806396
1667255122787719200,0.89371923828125,-1.2168426513671875,-0.19242240488529205,-0.17165300250053406
1667255122790198500,0.896198486328125,-1.2101231813430786,-0.17043127119541168,-0.1747073233127594
1667255122792677600,0.898677734375,-1.2052361965179443,-0.15027274191379547,-0.1795942485332489
1667255122795157000,0.901156982421875,-1.2021819353103638,-0.1331685185432434,-0.18631376326084137
1667255122797636400,0.90363623046875,-1.1936297416687012,-0.12156209349632263,-0.19303326308727264
1667255122800115500,0.906115478515625,-1.1826342344284058,-0.1178968995809555,-0.1997527778148651
1667255122802594800,0.9085947265625,-1.1716386079788208,-0.12034036219120026,-0.2107483446598053
1667255122805074000,0.911073974609375,-1.1588104963302612,-0.12583814561367035,-0.22296564280986786
1667255122807553300,0.91355322265625,-1.1410953998565674,-0.1380554437637329,-0.23945899307727814
1667255122810032600,0.91603271484375,-1.1239912509918213,-0.15699224174022675,-0.2559523284435272
1667255122812511700,0.91851171875,-1.102000117301941,-0.185092031955719,-0.277332603931427
1667255122814991000,0.9209912109375,-1.0781763792037964,-0.2162461280822754,-0.2993237376213074
1667255122817470500,0.923470458984375,-1.0525200366973877,-0.24984370172023773,-0.3249800503253937
1667255122819949600,0.925949462890625,-1.028085470199585,-0.28405213356018066,-0.35124725103378296
1667255122822429000,0.928428955078125,-1.000596523284912,-0.318871408700943,-0.37751442193984985
1667255122824908000,0.930907958984375,-0.9773836731910706,-0.35124725103378296,-0.4043924808502197
1667255122827387400,0.933387451171875,-0.952949047088623,-0.38240134716033936,-0.43310311436653137
1667255122829866800,0.93586669921875,-0.9315688014030457,-0.4105011224746704,-0.45998117327690125
1667255122832345900,0.938345947265625,-0.9126319885253906,-0.4373791813850403,-0.48991355299949646
1667255122834825200,0.9408251953125,-0.8912517428398132,-0.4612029194831848,-0.5241219997406006
1667255122837304600,0.9433046875,-0.8723149299621582,-0.47525280714035034,-0.5601630210876465
1667255122839783700,0.94578369140625,-0.8552106618881226,-0.4838049113750458,-0.5986474752426147
1667255122842263000,0.948262939453125,-0.8448259830474854,-0.4880809485912323,-0.637742817401886
1667255122844742100,0.9507421875,-0.8350521326065063,-0.4874700903892517,-0.676227331161499
1667255122847221500,0.953221435546875,-0.8289434909820557,-0.48441576957702637,-0.7195987105369568
1667255122849700900,0.955700927734375,-0.8265000581741333,-0.4838049113750458,-0.7605266571044922
1667255122852180000,0.958179931640625,-0.8240565657615662,-0.4831940531730652,-0.7971785664558411
1667255122854659300,0.960659423828125,-0.8222240209579468,-0.4825831651687622,-0.831997811794281
1667255122857138700,0.963138671875,-0.8210022449493408,-0.48013970255851746,-0.8625410795211792
1667255122859617800,0.96561767578125,-0.8179479241371155,-0.47952884435653687,-0.8881973624229431
1667255122862097200,0.96809716796875,-0.813671886920929,-0.4783071279525757,-0.9089667797088623
1667255122864576300,0.970576171875,-0.8075632452964783,-0.48013970255851746,-0.9236275553703308
1667255122867055600,0.9730556640625,-0.8008437156677246,-0.4819723069667816,-0.9315688014030457
1667255122869535000,0.975534912109375,-0.7904590368270874,-0.4838049113750458,-0.934623122215271
1667255122872014000,0.97801416015625,-0.7806851863861084,-0.4862483739852905,-0.934012234210968
1667255122874493400,0.980493408203125,-0.7721330523490906,-0.49052441120147705,-0.924849271774292
1667255122876972500,0.98297265625,-0.7648026943206787,-0.49418962001800537,-0.9071341753005981
1667255122879452000,0.985451904296875,-0.7562506198883057,-0.4978547990322113,-0.8888082504272461
1667255122881931300,0.98793115234375,-0.748920202255249,-0.500298261642456,-0.8655954003334045
1667255122884410400,0.990410400390625,-0.7367029190063477,-0.5021308660507202,-0.8405499458312988
1667255122886889700,0.9928896484375,-0.7287616729736328,-0.5039634704589844,-0.8118392825126648
1667255122889368800,0.995368896484375,-0.7220421433448792,-0.5057960152626038,-0.7819069027900696
1667255122891848200,0.99784814453125,-0.7153226733207703,-0.5051851868629456,-0.7483093738555908
1667255122894327600,1.00032763671875,-0.7122683525085449,-0.5021308660507202,-0.7128791809082031
1667255122896806700,1.002806640625,-0.7079922556877136,-0.49968740344047546,-0.6750055551528931
1667255122899286000,1.0052861328125,-0.7092140316963196,-0.5015199780464172,-0.6359102129936218
1667255122901765400,1.007765380859375,-0.7122683525085449,-0.5125155448913574,-0.5968148708343506
1667255122904244500,1.010244384765625,-0.7177661061286926,-0.5296197533607483,-0.5564978122711182
1667255122906723800,1.012723876953125,-0.7220421433448792,-0.555276095867157,-0.516791582107544
1667255122909203000,1.015202880859375,-0.7287616729736328,-0.5858193039894104,-0.4789179861545563
1667255122911682300,1.017682373046875,-0.7391464114189148,-0.6200277805328369,-0.4428769648075104
1667255122914161700,1.02016162109375,-0.7525854110717773,-0.6542361974716187,-0.4098902642726898
1667255122916640800,1.022640869140625,-0.7690787315368652,-0.6933315396308899,-0.3811796307563782
1667255122919120100,1.0251201171875,-0.7886264324188232,-0.7342594861984253,-0.35246896743774414
1667255122921599200,1.02759912109375,-0.8081740736961365,-0.7776308655738831,-0.3280344009399414
1667255122924078600,1.03007861328125,-0.8277217745780945,-0.8240565657615662,-0.30543237924575806
1667255122926558000,1.032557861328125,-0.8460476994514465,-0.8710931539535522,-0.29016077518463135
1667255122929037000,1.035037109375,-0.8649845123291016,-0.9187406301498413,-0.27366742491722107
1667255122931516400,1.037516357421875,-0.8772017955780029,-0.9676098227500916,-0.26389357447624207
1667255122933995800,1.039995849609375,-0.8888082504272461,-1.0122029781341553,-0.2571740746498108
1667255122936475000,1.042474853515625,-0.8967494964599609,-1.053741693496704,-0.25045454502105713
1667255122938954200,1.044954345703125,-0.9010255336761475,-1.091004490852356,-0.25045454502105713
1667255122941433300,1.047433349609375,-0.9028581380844116,-1.1233803033828735,-0.2528980076313019
1667255122943912700,1.04991259765625,-0.8998038172721863,-1.1508692502975464,-0.2577849328517914
1667255122946392000,1.05239208984375,-0.8906408548355103,-1.1710277795791626,-0.2663370370864868
1667255122948871200,1.05487109375,-0.8796452879905701,-1.1887428760528564,-0.27550002932548523
1667255122951350500,1.0573505859375,-0.8619301915168762,-1.2107340097427368,-0.28954991698265076
1667255122953830000,1.059829833984375,-0.8374956250190735,-1.2382229566574097,-0.30482152104377747
1667255122956309000,1.06230908203125,-0.8124501705169678,-1.2699878215789795,-0.3249800503253937
1667255122958788400,1.064788330078125,-0.7837395071983337,-1.3023637533187866,-0.34636032581329346
1667255122961267500,1.067267333984375,-0.7519745230674744,-1.3292417526245117,-0.3695732057094574
1667255122963746800,1.069746826171875,-0.7232639193534851,-1.3518437147140503,-0.39339691400527954
1667255122966226200,1.07222607421875,-0.6945532560348511,-1.36772620677948,-0.41844236850738525
1667255122968705300,1.074705322265625,-0.6676751971244812,-1.377500057220459,-0.4477638900279999
1667255122971184600,1.0771845703125,-0.6426297426223755,-1.3842196464538574,-0.4776962697505951
1667255122973664000,1.0796640625,-0.6230821013450623,-1.3891065120697021,-0.5100721120834351
1667255122976143000,1.08214306640625,-0.6065887212753296,-1.387273907661438,-0.5430588126182556
1667255122978622500,1.08462255859375,-0.5907062292098999,-1.3762784004211426,-0.5748237371444702
1667255122981101600,1.0871015625,-0.5760455131530762,-1.3561197519302368,-0.6035344004631042
1667255122983581000,1.089580810546875,-0.5595521330833435,-1.3194679021835327,-0.6298015713691711
1667255122986060300,1.092060302734375,-0.5412262082099915,-1.2760965824127197,-0.6536253094673157
1667255122988539400,1.094539306640625,-0.5192350745201111,-1.2272273302078247,-0.6731730103492737
1667255122991018800,1.097018798828125,-0.49113526940345764,-1.1759146451950073,-0.6878337264060974
1667255122993497900,1.099497802734375,-0.46059203147888184,-1.1239912509918213,-0.695164144039154
1667255122995977200,1.101977294921875,-0.42943793535232544,-1.0708459615707397,-0.6982184648513794
1667255122998456600,1.10445654296875,-0.3946186602115631,-1.0146464109420776,-0.6963858604431152
1667255123000935700,1.106935791015625,-0.36651885509490967,-0.9523382186889648,-0.6847794055938721
1667255123003415000,1.1094150390625,-0.33597561717033386,-0.8863648176193237,-0.6695078015327454
1667255123005894400,1.111894287109375,-0.3072649836540222,-0.8203914165496826,-0.646905779838562
1667255123008373500,1.11437353515625,-0.27855435013771057,-0.7544180154800415,-0.6194168925285339
1667255123010852900,1.116852783203125,-0.2528980076313019,-0.6835576891899109,-0.5907062292098999
1667255123013332000,1.11933203125,-0.23335035145282745,-0.6108647584915161,-0.5534434914588928
1667255123015811300,1.121811279296875,-0.2162461280822754,-0.5424479246139526,-0.5112938284873962
1667255123018290700,1.124290771484375,-0.20952661335468292,-0.47952884435653687,-0.4673115611076355
1667255123020769800,1.126769775390625,-0.205861434340477,-0.4251618981361389,-0.4166097939014435
1667255123023249200,1.129249267578125,-0.2107483446598053,-0.3805687427520752,-0.3640754222869873
1667255123025728300,1.131728271484375,-0.2211330533027649,-0.35063639283180237,-0.3072649836540222
1667255123028207600,1.13420751953125,-0.235793799161911,-0.33231043815612793,-0.24556763470172882
1667255123030687000,1.13668701171875,-0.2565632164478302,-0.32681265473365784,-0.1802051067352295
1667255123033166000,1.139166015625,-0.28038692474365234,-0.32620179653167725,-0.11056652665138245
1667255123035645400,1.1416455078125,-0.30482152104377747,-0.33231043815612793,-0.036651886999607086
1667255123038124500,1.14412451171875,-0.33169957995414734,-0.3396408259868622,0.03909534588456154
1667255123040604000,1.14660400390625,-0.3549124300479889,-0.35124725103378296,0.11972949653863907
1667255123043083300,1.149083251953125,-0.38179048895835876,-0.36835145950317383,0.2009745091199875
1667255123045562400,1.151562255859375,-0.4043924808502197,-0.39400777220726013,0.27977606654167175
1667255123048041700,1.154041748046875,-0.42332929372787476,-0.42394015192985535,0.3591884970664978
1667255123050521000,1.15652099609375,-0.4404335021972656,-0.45998117327690125,0.4324922561645508
1667255123053000200,1.159000244140625,-0.45509424805641174,-0.5027416944503784,0.5039634704589844
1667255123055479600,1.1614794921875,-0.4667007029056549,-0.5510000586509705,0.5693259835243225
1667255123057958700,1.163958740234375,-0.47952884435653687,-0.6035344004631042,0.627968966960907
1667255123060438000,1.16643798828125,-0.48930269479751587,-0.657290518283844,0.6835576891899109
1667255123062917400,1.16891748046875,-0.49968740344047546,-0.7116574645042419,0.730594277381897
1667255123065396500,1.171396484375,-0.5112938284873962,-0.7629700899124146,0.7733548283576965
1667255123067875800,1.173875732421875,-0.5235111117362976,-0.8075632452964783,0.8087849617004395
1667255123070355200,1.176355224609375,-0.5326740741729736,-0.8466585874557495,0.8387173414230347
1667255123072834300,1.178834228515625,-0.5430588126182556,-0.8796452879905701,0.8625410795211792
1667255123075313700,1.181313720703125,-0.5522217750549316,-0.9065233469009399,0.8772017955780029
1667255123077792800,1.183792724609375,-0.5619956254959106,-0.9303470849990845,0.8869756460189819
1667255123080272100,1.186272216796875,-0.5674933791160583,-0.9474512934684753,0.8906408548355103
1667255123082751500,1.18875146484375,-0.574212908744812,-0.9584468603134155,0.8863648176193237
1667255123085230600,1.191230712890625,-0.5784889459609985,-0.9602794051170349,0.8741474747657776
1667255123087710000,1.1937099609375,-0.5772672295570374,-0.9566142559051514,0.8576541543006897
1667255123090189300,1.196189208984375,-0.5723803043365479,-0.9474512934684753,0.8350521326065063
1667255123092668400,1.19866845703125,-0.5626064538955688,-0.9303470849990845,0.8075632452964783
1667255123095147800,1.201147705078125,-0.5467239618301392,-0.9040798544883728,0.7733548283576965
1667255123097627000,1.203626953125,-0.526565432548523,-0.8674280047416687,0.7354812026023865
1667255123100106200,1.206106201171875,-0.500298261642456,-0.8240565657615662,0.695164144039154
1667255123102585600,1.208585693359375,-0.47097674012184143,-0.7727439403533936,0.6505709886550903
1667255123105064700,1.211064697265625,-0.4373791813850403,-0.7171552777290344,0.6017017960548401
1667255123107544000,1.2135439453125,-0.4013381600379944,-0.667064368724823,0.5522217750549316
1667255123110023400,1.2160234375,-0.3610210716724396,-0.6236929297447205,0.4990765154361725
1667255123112502500,1.21850244140625,-0.3170388340950012,-0.5907062292098999,0.44898560643196106
1667255123114982000,1.22098193359375,-0.2718348205089569,-0.5632173418998718,0.40378162264823914
1667255123117461000,1.2234609375,-0.22479823231697083,-0.5412262082099915,0.360410213470459
1667255123119940400,1.2259404296875,-0.18142683804035187,-0.5271763205528259,0.3237583339214325
1667255123122419700,1.228419677734375,-0.13988803327083588,-0.5229002237319946,0.2919933497905731
1667255123124898800,1.23089892578125,-0.10079269111156464,-0.5259546041488647,0.26511532068252563
1667255123127378200,1.233378173828125,-0.0665842592716217,-0.5369501113891602,0.24251331388950348
1667255123129857300,1.235857177734375,-0.03481929376721382,-0.5540543794631958,0.22418737411499023
1667255123132336600,1.238336669921875,-0.008552107028663158,-0.5723803043365479,0.20647229254245758
1667255123134816000,1.24081591796875,0.017104214057326317,-0.5937605500221252,0.1905898153781891
1667255123137295000,1.243295166015625,0.0360410213470459,-0.6163625717163086,0.17653992772102356
1667255123139774500,1.2457744140625,0.053145237267017365,-0.637742817401886,0.1649334877729416
1667255123142253800,1.24825390625,0.06475166976451874,-0.6597339510917664,0.15515965223312378
1667255123144733000,1.25073291015625,0.07391463965177536,-0.685390293598175,0.1441640853881836
1667255123147212300,1.25321240234375,0.08063415437936783,-0.7189878225326538,0.1331685185432434
1667255123149691400,1.25569140625,0.08613193035125732,-0.758694052696228,0.12217295914888382
1667255123152170800,1.258170654296875,0.09407317638397217,-0.8026763200759888,0.10934479534626007
1667255123154650000,1.260650146484375,0.10079269111156464,-0.8484911918640137,0.09712749719619751
1667255123157129200,1.263129150390625,0.10690133273601532,-0.8924734592437744,0.08491020649671555
1667255123159608600,1.265608642578125,0.11178825795650482,-0.9291253089904785,0.07086031138896942
1667255123162087700,1.268087646484375,0.11484257876873016,-0.9566142559051514,0.05803215503692627
1667255123164567000,1.270567138671875,0.1185077652335167,-0.9767727851867676,0.043982263654470444
1667255123167046400,1.27304638671875,0.12095122784376144,-0.9932661056518555,0.02932151034474373
1667255123169525500,1.275525390625,0.12095122784376144,-1.0042617321014404,0.015271619893610477
1667255123172004900,1.2780048828125,0.12034036219120026,-1.0122029781341553,0.001221729558892548
1667255123174484200,1.280484130859375,0.11362084746360779,-1.0195332765579224,-0.009162971749901772
1667255123176963300,1.28296337890625,0.10506874322891235,-1.0225876569747925,-0.01649334840476513
1667255123179442700,1.285442626953125,0.09040798991918564,-1.0231984853744507,-0.02260199747979641
1667255123181921800,1.287921875,0.07147117704153061,-1.0158681869506836,-0.02871064469218254
1667255123184401200,1.290401123046875,0.04886918142437935,-1.000596523284912,-0.03176496922969818
1667255123186880500,1.292880615234375,0.02260199747979641,-0.9712749719619751,-0.03237583488225937
1667255123189359600,1.295359619140625,-0.0054977829568088055,-0.9309579133987427,-0.03298669680953026
1667255123191839000,1.2978388671875,-0.034208428114652634,-0.8857539296150208,-0.030543239787220955
1667255123194318000,1.300318115234375,-0.06291907280683517,-0.8350521326065063,-0.0256563201546669
1667255123196797400,1.30279736328125,-0.08979712426662445,-0.7812960743904114,-0.023212861269712448
1667255123199276800,1.30527685546875,-0.11606431007385254,-0.7226530313491821,-0.01588248461484909
1667255123201756000,1.307755859375,-0.143553227186203,-0.6615665555000305,-0.011606430634856224
1667255123204235300,1.3102353515625,-0.16859868168830872,-0.5986474752426147,-0.008552107028663158
1667255123206714600,1.312714599609375,-0.19364413619041443,-0.526565432548523,-0.006719512399286032
1667255123209193700,1.31519384765625,-0.21746785938739777,-0.4508182108402252,-0.006719512399286032
1667255123211673000,1.317673095703125,-0.2412915825843811,-0.370184063911438,-0.007330377586185932
1667255123214152200,1.320152099609375,-0.2620609998703003,-0.287106454372406,-0.010995565913617611
1667255123216631600,1.322631591796875,-0.2779434621334076,-0.20647229254245758,-0.01893680728971958
1667255123219111000,1.32511083984375,-0.29016077518463135,-0.13439024984836578,-0.02871064469218254
1667255123221590000,1.327590087890625,-0.2932150959968567,-0.06841685622930527,-0.04520399495959282
1667255123224069400,1.3300693359375,-0.2919933497905731,-0.010995565913617611,-0.06230820715427399
1667255123226548700,1.332548828125,-0.2864955961704254,0.036651886999607086,-0.0873536616563797
1667255123229027800,1.33502783203125,-0.2828303873538971,0.07574722915887833,-0.1130099818110466
1667255123231507200,1.337507080078125,-0.2779434621334076,0.11117739230394363,-0.14294235408306122
1667255123233986600,1.339986572265625,-0.2761108875274658,0.14233149588108063,-0.17653992772102356
1667255123236465700,1.342465576171875,-0.2761108875274658,0.1740964651107788,-0.21197007596492767
1667255123238945000,1.344945068359375,-0.28038692474365234,0.20219624042510986,-0.24862197041511536
1667255123241424100,1.347424072265625,-0.287106454372406,0.23335035145282745,-0.28466299176216125
1667255123243903500,1.349903564453125,-0.29565855860710144,0.2663370370864868,-0.32192572951316833
1667255123246382800,1.3523828125,-0.3042106628417969,0.3035998046398163,-0.3585776388645172
1667255123248862000,1.354862060546875,-0.31581708788871765,0.34574946761131287,-0.3946186602115631
1667255123251341300,1.35734130859375,-0.3243691921234131,0.3915643095970154,-0.43310311436653137
1667255123253820700,1.359820556640625,-0.3341430425643921,0.4324922561645508,-0.4679224193096161
1667255123256299800,1.3622998046875,-0.3396408259868622,0.46975502371788025,-0.5027416944503784
1667255123258779100,1.364779052734375,-0.3439168632030487,0.5033525824546814,-0.5393936038017273
1667255123261258200,1.36725830078125,-0.3439168632030487,0.5387827157974243,-0.5723803043365479
1667255123263737600,1.369737548828125,-0.3396408259868622,0.5699368119239807,-0.6047561168670654
1667255123266217000,1.372217041015625,-0.3347539007663727,0.6084213256835938,-0.6340776681900024
1667255123268696000,1.374696044921875,-0.3347539007663727,0.685390293598175,-0.6554579138755798
1667255123271175400,1.377175537109375,-0.3426951467990875,0.7831286191940308,-0.6725621223449707
1667255123273654500,1.379654541015625,-0.35613417625427246,0.8649845123291016,-0.695164144039154
1667255123276134000,1.3821337890625,-0.37140578031539917,0.915075421333313,-0.7171552777290344
1667255123278613200,1.38461328125,-0.38850998878479004,0.9541707634925842,-0.7391464114189148
1667255123281092400,1.38709228515625,-0.40805765986442566,0.988990068435669,-0.7635809779167175
1667255123283571700,1.38957177734375,-0.42943793535232544,1.0134246349334717,-0.7910698652267456
1667255123286051000,1.392051025390625,-0.44959646463394165,1.0311397314071655,-0.8155044913291931
1667255123288530200,1.3945302734375,-0.4679224193096161,1.0378592014312744,-0.8387173414230347
1667255123291009500,1.397009521484375,-0.4868592321872711,1.0409135818481445,-0.861319363117218
1667255123293488600,1.399488525390625,-0.5051851868629456,1.0329723358154297,-0.8845322132110596
1667255123295968000,1.401968017578125,-0.5229002237319946,1.0115920305252075,-0.9028581380844116
1667255123298447400,1.404447265625,-0.5400044918060303,0.9767727851867676,-0.9193515181541443
1667255123300926500,1.406926513671875,-0.5583304166793823,0.9266818761825562,-0.9315688014030457
1667255123303405800,1.40940576171875,-0.5784889459609985,0.870482325553894,-0.9407317638397217
1667255123305885200,1.41188525390625,-0.5992583632469177,0.813060998916626,-0.9395100474357605
1667255123308364300,1.4143642578125,-0.6200277805328369,0.749531090259552,-0.9382883310317993
1667255123310843600,1.41684375,-0.6432406306266785,0.6860011219978333,-0.9266818761825562
1667255123313322800,1.41932275390625,-0.6646208763122559,0.6298015713691711,-0.9095776677131653
1667255123315802000,1.421802001953125,-0.6835576891899109,0.5766563415527344,-0.8875865340232849
1667255123318281500,1.424281494140625,-0.7049379348754883,0.5283980369567871,-0.8594867587089539
1667255123320760600,1.426760498046875,-0.7263182401657104,0.4862483739852905,-0.8313869833946228
1667255123323240000,1.429239990234375,-0.7428115606307983,0.4477638900279999,-0.8008437156677246
1667255123325719000,1.431718994140625,-0.7574723362922668,0.4056142270565033,-0.7654135823249817
1667255123328198400,1.434198486328125,-0.7690787315368652,0.36774060130119324,-0.7342594861984253
1667255123330677800,1.436677734375,-0.7770199775695801,0.3243691921234131,-0.7024945020675659
1667255123333156900,1.439156982421875,-0.7819069027900696,0.27855435013771057,-0.6707295179367065
1667255123335636200,1.44163623046875,-0.7806851863861084,0.2309068888425827,-0.6420188546180725
1667255123338115600,1.444115478515625,-0.778241753578186,0.17898337543010712,-0.6163625717163086
1667255123340594700,1.4465947265625,-0.768467903137207,0.11972949653863907,-0.5919279456138611
1667255123343074000,1.449073974609375,-0.7544180154800415,0.059864748269319534,-0.5681042671203613
1667255123345553200,1.45155322265625,-0.7367029190063477,-0.004276053514331579,-0.5479456782341003
1667255123348032500,1.454032470703125,-0.7134900689125061,-0.06841685622930527,-0.5271763205528259
1667255123350511900,1.456511962890625,-0.6872228980064392,-0.12705987691879272,-0.5094612240791321
1667255123352991000,1.458990966796875,-0.6615665555000305,-0.17653992772102356,-0.4935787320137024
1667255123355470300,1.46147021484375,-0.6359102129936218,-0.21502439677715302,-0.47952884435653687
1667255123357949400,1.463949462890625,-0.6139190793037415,-0.23823726177215576,-0.471587598323822
1667255123360428800,1.4664287109375,-0.5925388336181641,-0.24801109731197357,-0.46425724029541016
1667255123362908200,1.468908203125,-0.5717694163322449,-0.24373504519462585,-0.45998117327690125
1667255123365387300,1.47138720703125,-0.5479456782341003,-0.22968515753746033,-0.46364638209342957
1667255123367866600,1.47386669921875,-0.5216785073280334,-0.2156352698802948,-0.46486809849739075
1667255123370346000,1.476345947265625,-0.49418962001800537,-0.20402882993221283,-0.4673115611076355
1667255123372825000,1.4788251953125,-0.45998117327690125,-0.2003636509180069,-0.471587598323822
1667255123375304400,1.481304443359375,-0.42455101013183594,-0.20647229254245758,-0.4728093445301056
1667255123377783600,1.483783447265625,-0.3915643095970154,-0.21991132199764252,-0.4783071279525757
1667255123380263000,1.486262939453125,-0.3543015718460083,-0.24251331388950348,-0.47952884435653687
1667255123382742300,1.4887421875,-0.3176496922969818,-0.2712239623069763,-0.4819723069667816
1667255123385221400,1.491221435546875,-0.2834412455558777,-0.3042106628417969,-0.4819723069667816
1667255123387700700,1.49370068359375,-0.24984370172023773,-0.33108872175216675,-0.48441576957702637
1667255123390180000,1.49618017578125,-0.21930044889450073,-0.3481929302215576,-0.4862483739852905
1667255123392659200,1.4986591796875,-0.19364413619041443,-0.3481929302215576,-0.4923570156097412
1667255123395138600,1.501138671875,-0.16615521907806396,-0.3402516841888428,-0.500298261642456
1667255123397617700,1.50361767578125,-0.14294235408306122,-0.3292561173439026,-0.5094612240791321
1667255123400097000,1.506096923828125,-0.12095122784376144,-0.32070401310920715,-0.5222893953323364
1667255123402576400,1.508576416015625,-0.10201441496610641,-0.318871408700943,-0.5381718873977661
1667255123405055500,1.511055419921875,-0.09040798991918564,-0.3225366175174713,-0.5534434914588928
1667255123407534800,1.513534912109375,-0.08674279600381851,-0.3298669755458832,-0.5674933791160583
1667255123410014200,1.51601416015625,-0.09162971377372742,-0.3402516841888428,-0.5772672295570374
1667255123412493300,1.518493408203125,-0.10201441496610641,-0.35613417625427246,-0.5778780579566956
1667255123414972700,1.52097265625,-0.1178968995809555,-0.3707949221134186,-0.5754346251487732
1667255123417451800,1.52345166015625,-0.13194678723812103,-0.38728827238082886,-0.5632173418998718
1667255123419931100,1.52593115234375,-0.14782927930355072,-0.4111120104789734,-0.545502245426178
1667255123422410500,1.528410400390625,-0.1637117564678192,-0.4422661066055298,-0.5222893953323364
1667255123424889600,1.5308896484375,-0.17898337543010712,-0.47952884435653687,-0.49418962001800537
1667255123427369000,1.533368896484375,-0.19242240488529205,-0.5235111117362976,-0.45998117327690125
1667255123429848300,1.535848388671875,-0.20402882993221283,-0.5809323787689209,-0.4221075773239136
1667255123432327400,1.538327392578125,-0.2156352698802948,-0.6511818766593933,-0.38301220536231995
1667255123434806800,1.540806884765625,-0.22724169492721558,-0.730594277381897,-0.33719736337661743
1667255123437286100,1.5432861328125,-0.23762640357017517,-0.8142827749252319,-0.2889390289783478
1667255123439765200,1.54576513671875,-0.2467893660068512,-0.8985821008682251,-0.2370155304670334
1667255123442244600,1.54824462890625,-0.25411975383758545,-0.9847140312194824,-0.18081597983837128
1667255123444723700,1.5507236328125,-0.26389357447624207,-1.0696241855621338,-0.12583814561367035
1667255123447203000,1.553203125,-0.2712239623069763,-1.1527018547058105,-0.06719512492418289
1667255123449682400,1.555682373046875,-0.27916520833969116,-1.2247838973999023,-0.014660755172371864
1667255123452161500,1.55816162109375,-0.2889390289783478,-1.2877029180526733,0.03909534588456154
1667255123454641000,1.560640869140625,-0.2981020212173462,-1.3408482074737549,0.09162971377372742
1667255123457120300,1.563120361328125,-0.3084867000579834,-1.3854413032531738,0.13744457066059113
1667255123459599400,1.565599365234375,-0.31642794609069824,-1.4275909662246704,0.18081597983837128
1667255123462078700,1.56807861328125,-0.32559093832969666,-1.4703515768051147,0.22235478460788727
1667255123464557800,1.570557861328125,-0.33169957995414734,-1.517388105392456,0.2571740746498108
1667255123467037200,1.573037109375,-0.33658650517463684,-1.5583161115646362,0.29138249158859253
1667255123469516500,1.5755166015625,-0.34086254239082336,-1.5906919240951538,0.3231474757194519
1667255123471995600,1.57799560546875,-0.3439168632030487,-1.6132938861846924,0.3500255048274994
1667255123474475000,1.58047509765625,-0.3481929302215576,-1.619402527809143,0.37140578031539917
1667255123476954400,1.582954345703125,-0.35246896743774414,-1.6077960729599,0.3903425931930542
1667255123479433500,1.58543359375,-0.3536907136440277,-1.5864158868789673,0.4050033390522003
1667255123481912800,1.587912841796875,-0.3530798554420471,-1.5613703727722168,0.4147771894931793
1667255123484392000,1.590391845703125,-0.3500255048274994,-1.5277727842330933,0.41844236850738525
1667255123486871300,1.592871337890625,-0.3433060050010681,-1.4911209344863892,0.41844236850738525
1667255123489350700,1.5953505859375,-0.3341430425643921,-1.451414704322815,0.41294458508491516
1667255123491829800,1.597829833984375,-0.32070401310920715,-1.4074324369430542,0.40317076444625854
1667255123494309000,1.60030908203125,-0.30543237924575806,-1.357952356338501,0.3897317349910736
1667255123496788500,1.60278857421875,-0.2926042377948761,-1.3011419773101807,0.370184063911438
1667255123499267600,1.605267578125,-0.2816086709499359,-1.2339468002319336,0.3451386094093323
1667255123501747000,1.607746826171875,-0.27427828311920166,-1.1563670635223389,0.31581708788871765
1667255123504226000,1.61022607421875,-0.2663370370864868,-1.0690133571624756,0.27550002932548523
1667255123506705400,1.612705322265625,-0.25534147024154663,-0.9737184643745422,0.22846342623233795
1667255123509184800,1.615184814453125,-0.24495677649974823,-0.8735366463661194,0.17348559200763702
1667255123511663900,1.617663818359375,-0.2364046722650528,-0.7709113359451294,0.1081230640411377
1667255123514143200,1.620143310546875,-0.22296564280986786,-0.665842592716217,0.036651886999607086
1667255123516622600,1.62262255859375,-0.2162461280822754,-0.5589412450790405,-0.03848448023200035
1667255123519101700,1.625101806640625,-0.20952661335468292,-0.44898560643196106,-0.12034036219120026
1667255123521581000,1.6275810546875,-0.2052505612373352,-0.3439168632030487,-0.20219624042510986
1667255123524060200,1.63006005859375,-0.20219624042510986,-0.25045454502105713,-0.28466299176216125
1667255123526539500,1.63253955078125,-0.19914191961288452,-0.1747073233127594,-0.3659079968929291
1667255123529019000,1.635018798828125,-0.19242240488529205,-0.1185077652335167,-0.44348782300949097
1667255123531498000,1.637498046875,-0.18814635276794434,-0.07574722915887833,-0.5125155448913574
1667255123533977300,1.639977294921875,-0.17898337543010712,-0.040317077189683914,-0.5729911923408508
1667255123536456700,1.642456787109375,-0.17348559200763702,-0.004886918235570192,-0.6212494969367981
1667255123538935800,1.644935791015625,-0.1692095398902893,0.037262752652168274,-0.6585122346878052
1667255123541415200,1.647415283203125,-0.16798780858516693,0.08552107214927673,-0.685390293598175
1667255123543894300,1.649894287109375,-0.1692095398902893,0.13011419773101807,-0.6988292932510376
1667255123546373600,1.65237353515625,-0.1692095398902893,0.16615521907806396,-0.7031053900718689
1667255123548853000,1.65485302734375,-0.17043127119541168,0.19608759880065918,-0.6945532560348511
1667255123551332000,1.65733203125,-0.16798780858516693,0.21991132199764252,-0.6743947267532349
1667255123553811500,1.6598115234375,-0.1649334877729416,0.23518294095993042,-0.647516667842865
1667255123556290800,1.662290771484375,-0.16249002516269684,0.2370155304670334,-0.6126973628997803
1667255123558770000,1.66477001953125,-0.1594357043504715,0.22724169492721558,-0.5729911923408508
1667255123561249300,1.667249267578125,-0.15577052533626556,0.20769402384757996,-0.5290089249610901
1667255123563728400,1.669728271484375,-0.15577052533626556,0.18081597983837128,-0.48441576957702637
1667255123566207700,1.672207763671875,-0.15515965223312378,0.1496618688106537,-0.43432486057281494
1667255123568687000,1.67468701171875,-0.15210533142089844,0.10995566099882126,-0.38179048895835876
1667255123571166200,1.677166259765625,-0.14538581669330597,0.06902772188186646,-0.328645259141922
1667255123573645600,1.6796455078125,-0.13622283935546875,0.021991131827235222,-0.2761108875274658
1667255123576125000,1.682125,-0.12767073512077332,-0.025045456364750862,-0.2211330533027649
1667255123578604000,1.68460400390625,-0.11972949653863907,-0.06902772188186646,-0.16798780858516693
1667255123581083400,1.68708349609375,-0.11117739230394363,-0.11239911615848541,-0.11423171311616898
1667255123583562500,1.6895625,-0.1026252806186676,-0.15577052533626556,-0.06352993845939636
1667255123586041900,1.692041748046875,-0.09407317638397217,-0.2009745091199875,-0.015271619893610477
1667255123588521200,1.694521240234375,-0.08674279600381851,-0.24862197041511536,0.02932151034474373
1667255123591000300,1.697000244140625,-0.08063415437936783,-0.2981020212173462,0.07147117704153061
1667255123593479700,1.699479736328125,-0.07635809481143951,-0.3494146466255188,0.10934479534626007
1667255123595958800,1.701958740234375,-0.0720820426940918,-0.39767298102378845,0.14233149588108063
1667255123598438100,1.704438232421875,-0.07147117704153061,-0.4459312856197357,0.17226386070251465
1667255123600917500,1.70691748046875,-0.07452550530433655,-0.49480047821998596,0.19914191961288452
1667255123603396600,1.709396728515625,-0.07880155742168427,-0.5406153202056885,0.2211330533027649
1667255123605876000,1.7118759765625,-0.08307760953903198,-0.5894845128059387,0.23945899307727814
1667255123608355300,1.714355224609375,-0.08613193035125732,-0.6389645338058472,0.2565632164478302
1667255123610834400,1.71683447265625,-0.08857539296150208,-0.6884446144104004,0.2718348205089569
1667255123613313800,1.719313720703125,-0.09040798991918564,-0.7391464114189148,0.2864955961704254
1667255123615793000,1.72179296875,-0.09040798991918564,-0.7935133576393127,0.30054548382759094
1667255123618272300,1.724272216796875,-0.09162971377372742,-0.8527672290802002,0.31459537148475647
1667255123620751600,1.726751708984375,-0.09040798991918564,-0.915075421333313,0.3298669755458832
1667255123623230700,1.729230712890625,-0.09346231073141098,-0.9798271059989929,0.3439168632030487
1667255123625710000,1.7317099609375,-0.09651663154363632,-1.0415244102478027,0.36224281787872314
1667255123628189400,1.734189453125,-0.10018182545900345,-1.1013891696929932,0.38179048895835876
1667255123630668500,1.73666845703125,-0.10690133273601532,-1.1563670635223389,0.40378162264823914
1667255123633148000,1.73914794921875,-0.11117739230394363,-1.2101231813430786,0.4312705397605896
1667255123635627300,1.741627197265625,-0.11545344442129135,-1.258992314338684,0.45998117327690125
1667255123638106400,1.7441064453125,-0.11911863088607788,-1.303585410118103,0.49480047821998596
1667255123640585700,1.746585693359375,-0.12034036219120026,-1.3451242446899414,0.5332849621772766
1667255123643064800,1.74906494140625,-0.12156209349632263,-1.3823870420455933,0.5754346251487732
1667255123645544200,1.751544189453125,-0.12095122784376144,-1.4123194217681885,0.6243038177490234
1667255123648023600,1.7540234375,-0.11911863088607788,-1.4288127422332764,0.6805033683776855
1667255123650502700,1.756502685546875,-0.11362084746360779,-1.4306453466415405,0.7367029190063477
1667255123652982000,1.75898193359375,-0.1081230640411377,-1.4214823246002197,0.7977893948554993
1667255123655461400,1.76146142578125,-0.10140355676412582,-1.3976585865020752,0.860708475112915
1667255123657940500,1.7639404296875,-0.08979712426662445,-1.3634501695632935,0.924849271774292
1667255123660419800,1.766419921875,-0.07635809481143951,-1.3213005065917969,0.9834923148155212
1667255123662899000,1.76889892578125,-0.05742128938436508,-1.2748748064041138,1.0409135818481445
1667255123665378300,1.77137841796875,-0.03909534588456154,-1.2290599346160889,1.08978271484375
1667255123667857700,1.773857666015625,-0.017104214057326317,-1.1850776672363281,1.1349867582321167
1667255123670336800,1.776336669921875,0.006719512399286032,-1.145371437072754,1.1753038167953491
1667255123672816000,1.778816162109375,0.03237583488225937,-1.1074978113174438,1.2058470249176025
1667255123675295500,1.78129541015625,0.05742128938436508,-1.073289394378662,1.232114315032959
1667255123677774600,1.783774658203125,0.07757982611656189,-1.0396918058395386,1.2498292922973633
1667255123680254000,1.78625390625,0.09529490768909454,-1.0079269409179688,1.258992314338684
1667255123682733000,1.788733154296875,0.1130099818110466,-0.9828814268112183,1.2638791799545288
1667255123685212400,1.79121240234375,0.12400554865598679,-0.9663881063461304,1.2608249187469482
1667255123687691800,1.79369189453125,0.13011419773101807,-0.9602794051170349,1.2510510683059692
1667255123690171000,1.7961708984375,0.13011419773101807,-0.9608902931213379,1.2357794046401978
1667255123692650200,1.798650146484375,0.12583814561367035,-0.9700532555580139,1.2143992185592651
1667255123695129600,1.801129638671875,0.11545344442129135,-0.9834923148155212,1.1869102716445923
1667255123697608700,1.803608642578125,0.09957095980644226,-1.0036507844924927,1.1575887203216553
1667255123700088000,1.806088134765625,0.0818558782339096,-1.0311397314071655,1.1246020793914795
1667255123702567200,1.808567138671875,0.06230820715427399,-1.0598503351211548,1.092226266860962
1667255123705046500,1.811046630859375,0.040317077189683914,-1.0891718864440918,1.0574069023132324
1667255123707526000,1.81352587890625,0.020769402384757996,-1.1166608333587646,1.0207550525665283
1667255123710005000,1.8160048828125,0.0030543238390237093,-1.1423171758651733,0.988990068435669
1667255123712484400,1.818484375,-0.009773836471140385,-1.166751742362976,0.9566142559051514
1667255123714963700,1.820963623046875,-0.01954767294228077,-1.186299443244934,0.9260709881782532
1667255123717442800,1.82344287109375,-0.0256563201546669,-1.2034035921096802,0.9010255336761475
1667255123719922200,1.825922119140625,-0.029932374134659767,-1.2192860841751099,0.8778126835823059
1667255123722401300,1.8284013671875,-0.030543239787220955,-1.229670763015747,0.8576541543006897
1667255123724880600,1.830880615234375,-0.028099779039621353,-1.2333359718322754,0.8478803038597107
1667255123727360000,1.833360107421875,-0.023212861269712448,-1.2302817106246948,0.8454368710517883
1667255123729839000,1.835839111328125,-0.01588248461484909,-1.2156208753585815,0.8484911918640137
1667255123732318500,1.838318359375,-0.0054977829568088055,-1.1966841220855713,0.8588758707046509
1667255123734797800,1.8407978515625,0.008552107028663158,-1.1698060035705566,0.8753692507743835
1667255123737277000,1.84327685546875,0.0256563201546669,-1.1349867582321167,0.9004147052764893
1667255123739756300,1.84575634765625,0.04153880476951599,-1.092226266860962,0.9285144805908203
1667255123742235600,1.848235595703125,0.06291907280683517,-1.0458004474639893,0.9590576887130737
1667255123744714800,1.85071484375,0.0818558782339096,-0.9944878816604614,0.9914335608482361
1667255123747194000,1.853194091796875,0.10323614627122879,-0.9395100474357605,1.028085470199585
1667255123749673200,1.855673095703125,0.12278381735086441,-0.8839213252067566,1.0610721111297607
1667255123752152600,1.858152587890625,0.14110976457595825,-0.8283326625823975,1.0916153192520142
1667255123754632000,1.8606318359375,0.16004657745361328,-0.7751874327659607,1.1184934377670288
1667255123757111000,1.863111083984375,0.1740964651107788,-0.7257073521614075,1.1398736238479614
1667255123759590400,1.86559033203125,0.18570289015769958,-0.6829468011856079,1.1520910263061523
1667255123762069800,1.86806982421875,0.19303326308727264,-0.648127555847168,1.1594213247299194
1667255123764548900,1.870548828125,0.19730933010578156,-0.6157516837120056,1.1563670635223389
1667255123767028200,1.8730283203125,0.2003636509180069,-0.5864301919937134,1.1423171758651733
1667255123769507300,1.87550732421875,0.19669845700263977,-0.5601630210876465,1.120326042175293
1667255123771986700,1.877986572265625,0.19425499439239502,-0.535728394985199,1.0830632448196411
1667255123774466000,1.880466064453125,0.18814635276794434,-0.5143481492996216,1.0372483730316162
1667255123776945200,1.882945068359375,0.1795942485332489,-0.49480047821998596,0.9816597104072571
1667255123779424500,1.885424560546875,0.1698204129934311,-0.48075059056282043,0.915075421333313
1667255123781904000,1.88790380859375,0.15821397304534912,-0.472198486328125,0.8454368710517883
1667255123784383000,1.890383056640625,0.1490510106086731,-0.4667007029056549,0.7666352987289429
1667255123786862300,1.8928623046875,0.13683371245861053,-0.4612029194831848,0.6847794055938721
1667255123789341400,1.895341552734375,0.12705987691879272,-0.4563159942626953,0.5998691916465759
1667255123791820800,1.89782080078125,0.11667517572641373,-0.4477638900279999,0.5155698657035828
1667255123794300200,1.900300048828125,0.10751219838857651,-0.4379900395870209,0.43004879355430603
1667255123796779300,1.902779296875,0.09590577334165573,-0.4202749729156494,0.3494146466255188
1667255123799258600,1.905258544921875,0.08552107214927673,-0.3970620930194855,0.26878049969673157
1667255123801738000,1.907738037109375,0.07391463965177536,-0.3659079968929291,0.1899789422750473
1667255123804217000,1.910217041015625,0.06291907280683517,-0.3298669755458832,0.11423171311616898
1667255123806696400,1.912696533203125,0.053756099194288254,-0.2877173125743866,0.043371398001909256
1667255123809175600,1.915175537109375,0.04581485688686371,-0.2461785078048706,-0.024434590712189674
1667255123811655000,1.917655029296875,0.03909534588456154,-0.19853104650974274,-0.08918625861406326
1667255123814134300,1.92013427734375,0.037262752652168274,-0.1496618688106537,-0.1496618688106537
1667255123816613400,1.92261328125,0.037262752652168274,-0.09896009415388107,-0.20647229254245758
1667255123819092700,1.9250927734375,0.037262752652168274,-0.0513126403093338,-0.2614501118659973
1667255123821572000,1.927572021484375,0.03848448023200035,-0.0054977829568088055,-0.31520622968673706
1667255123824051200,1.93005126953125,0.03909534588456154,0.03909534588456154,-0.3689623177051544
1667255123826530600,1.932530517578125,0.040317077189683914,0.08368847519159317,-0.4147771894931793
1667255123829010000,1.935010009765625,0.04214967042207718,0.12644900381565094,-0.46059203147888184
1667255123831489000,1.937489013671875,0.043982263654470444,0.16737695038318634,-0.5045742988586426
1667255123833968400,1.939968505859375,0.04581485688686371,0.20402882993221283,-0.5442805290222168
1667255123836447500,1.942447509765625,0.04825831577181816,0.23518294095993042,-0.5815432667732239
1667255123838926800,1.9449267578125,0.04886918142437935,0.26389357447624207,-0.6139190793037415
1667255123841406200,1.94740625,0.049480047076940536,0.2926042377948761,-0.6401863098144531
1667255123843885300,1.94988525390625,0.04825831577181816,0.32192572951316833,-0.6627882719039917
1667255123846364700,1.95236474609375,0.04825831577181816,0.3549124300479889,-0.6792816519737244
1667255123848844000,1.954843994140625,0.04581485688686371,0.3909534513950348,-0.6884446144104004
1667255123851323100,1.9573232421875,0.04459312930703163,0.4257727563381195,-0.6902772188186646
1667255123853802500,1.959802490234375,0.04153880476951599,0.4557051360607147,-0.685390293598175
1667255123856281600,1.962281494140625,0.034208428114652634,0.4783071279525757,-0.676227331161499
1667255123858761000,1.964760986328125,0.027488915249705315,0.4929678738117218,-0.6633991599082947
1667255123861240300,1.967240234375,0.01954767294228077,0.4984656572341919,-0.6438514590263367
1667255123863719400,1.969719482421875,0.009773836471140385,0.49418962001800537,-0.6206386089324951
1667255123866198800,1.97219873046875,-0.0030543238390237093,0.4825831651687622,-0.5949822664260864
1667255123868678100,1.97467822265625,-0.018325943499803543,0.4618137776851654,-0.5674933791160583
1667255123871157200,1.9771572265625,-0.034208428114652634,0.4355465769767761,-0.5369501113891602
1667255123873636600,1.97963671875,-0.049480047076940536,0.4043924808502197,-0.5057960152626038
1667255123876116000,1.982115966796875,-0.06536252796649933,0.3707949221134186,-0.4740310609340668
1667255123878595000,1.984594970703125,-0.08124501258134842,0.33597561717033386,-0.4416552484035492
1667255123881074400,1.987074462890625,-0.09651663154363632,0.29993459582328796,-0.40866854786872864
1667255123883553500,1.989553466796875,-0.11056652665138245,0.2626718580722809,-0.3738492429256439
1667255123886033000,1.992032958984375,-0.12278381735086441,0.2254091054201126,-0.3396408259868622
1667255123888512300,1.99451220703125,-0.13194678723812103,0.18570289015769958,-0.3072649836540222
1667255123890991400,1.996991455078125,-0.13744457066059113,0.14660754799842834,-0.277332603931427
1667255123893470700,1.999470703125,-0.13927717506885529,0.10323614627122879,-0.24740023910999298
1667255123895950000,2.0019501953125,-0.13927717506885529,0.06108647957444191,-0.2205221801996231
1667255123898429200,2.00442919921875,-0.1386663019657135,0.021380268037319183,-0.1997527778148651
1667255123900908500,2.006908447265625,-0.13683371245861053,-0.01588248461484909,-0.18142683804035187
1667255123903388000,2.009387939453125,-0.13500112295150757,-0.050090912729501724,-0.16554436087608337
1667255123905867000,2.011866943359375,-0.13439024984836578,-0.07757982611656189,-0.15088360011577606
1667255123908346400,2.014346435546875,-0.1337793916463852,-0.10323614627122879,-0.14049890637397766
1667255123910825500,2.016825439453125,-0.13194678723812103,-0.1233946830034256,-0.1331685185432434
1667255123913304800,2.019304931640625,-0.13133592903614044,-0.13927717506885529,-0.12767073512077332
1667255123915784200,2.0217841796875,-0.12950333952903748,-0.1496618688106537,-0.12217295914888382
1667255123918263300,2.02426318359375,-0.12522727251052856,-0.15577052533626556,-0.1185077652335167
1667255123920742700,2.02674267578125,-0.12217295914888382,-0.15760311484336853,-0.11423171311616898
1667255123923222000,2.029221923828125,-0.11545344442129135,-0.15699224174022675,-0.11117739230394363
1667255123925701000,2.031701171875,-0.10445787757635117,-0.15149445831775665,-0.10751219838857651
1667255123928180500,2.034180419921875,-0.09407317638397217,-0.14049890637397766,-0.10506874322891235
1667255123930659600,2.03665966796875,-0.08002328872680664,-0.1233946830034256,-0.10690133273601532
1667255123933139000,2.039138916015625,-0.06536252796649933,-0.10018182545900345,-0.10384701192378998
1667255123935618300,2.041618408203125,-0.04764745384454727,-0.07269290834665298,-0.10445787757635117
1667255123938097400,2.044097412109375,-0.03176496922969818,-0.04459312930703163,-0.10445787757635117
1667255123940576800,2.04657666015625,-0.01649334840476513,-0.013439024798572063,-0.10690133273601532
1667255123943056100,2.04905615234375,0.000610864779446274,0.021991131827235222,-0.10873392969369888
1667255123945535200,2.05153515625,0.015271619893610477,0.059864748269319534,-0.11056652665138245
1667255123948014600,2.0540146484375,0.028099779039621353,0.10018182545900345,-0.11117739230394363
1667255123950494000,2.056493896484375,0.04153880476951599,0.1386663019657135,-0.11239911615848541
1667255123952973000,2.05897314453125,0.050090912729501724,0.17776164412498474,-0.11362084746360779
1667255123955452400,2.061452392578125,0.05436696484684944,0.2162461280822754,-0.1130099818110466
1667255123957931500,2.063931640625,0.056199558079242706,0.25411975383758545,-0.11239911615848541
1667255123960411000,2.066410888671875,0.053145237267017365,0.2889390289783478,-0.11056652665138245
1667255123962890200,2.06889013671875,0.049480047076940536,0.3225366175174713,-0.1081230640411377
1667255123965369300,2.071369384765625,0.0409279391169548,0.35063639283180237,-0.1026252806186676
1667255123967848700,2.0738486328125,0.027488915249705315,0.3756818473339081,-0.10079269111156464
1667255123970328000,2.076328125,0.013439024798572063,0.3946186602115631,-0.09712749719619751
1667255123972807200,2.07880712890625,-0.001221729558892548,0.4050033390522003,-0.09407317638397217
1667255123975286500,2.08128662109375,-0.020769402384757996,0.40866854786872864,-0.08857539296150208
1667255123977765600,2.083765625,-0.040317077189683914,0.4062250852584839,-0.08491020649671555
1667255123980245000,2.086244873046875,-0.059864748269319534,0.3995055556297302,-0.07880155742168427
1667255123982724400,2.088724365234375,-0.07941242307424545,0.3903425931930542,-0.07330377399921417
1667255123985203500,2.091203369140625,-0.09590577334165573,0.38240134716033936,-0.06475166976451874
1667255123987682800,2.093682861328125,-0.11178825795650482,0.37262752652168274,-0.056810423731803894
1667255123990162200,2.096162109375,-0.1233946830034256,0.36285367608070374,-0.047036588191986084
1667255123992641300,2.098641357421875,-0.13133592903614044,0.35185810923576355,-0.03481929376721382
1667255123995120600,2.10112060546875,-0.13744457066059113,0.3439168632030487,-0.021991131827235222
1667255123997599700,2.103599853515625,-0.13927717506885529,0.33597561717033386,-0.012217295356094837
1667255124000079000,2.1060791015625,-0.1386663019657135,0.3298669755458832,0.001221729558892548
1667255124002558500,2.108558349609375,-0.13622283935546875,0.32009315490722656,0.015271619893610477
1667255124005037600,2.11103759765625,-0.13194678723812103,0.3078758418560028,0.026878049597144127
1667255124007517000,2.113516845703125,-0.12522727251052856,0.2938259541988373,0.040317077189683914
1667255124009996300,2.115996337890625,-0.11728604137897491,0.27550002932548523,0.053145237267017365
1667255124012475400,2.118475341796875,-0.10506874322891235,0.2522871494293213,0.06536252796649933
1667255124014954800,2.120954833984375,-0.09407317638397217,0.23029601573944092,0.07635809481143951
1667255124017434000,2.12343408203125,-0.08368847519159317,0.20952661335468292,0.08796452730894089
1667255124019913200,2.125913330078125,-0.07391463965177536,0.18753549456596375,0.09896009415388107
1667255124022392600,2.128392578125,-0.06536252796649933,0.16859868168830872,0.11117739230394363
1667255124024871700,2.13087158203125,-0.056199558079242706,0.15149445831775665,0.12156209349632263
1667255124027351000,2.13335107421875,-0.04825831577181816,0.13439024984836578,0.13194678723812103
1667255124029830400,2.135830322265625,-0.040317077189683914,0.11667517572641373,0.14294235408306122
1667255124032309500,2.1383095703125,-0.034208428114652634,0.10140355676412582,0.1545487940311432
1667255124034788900,2.140788818359375,-0.031154103577136993,0.08429934084415436,0.1637117564678192
1667255124037268200,2.143268310546875,-0.026878049597144127,0.0665842592716217,0.1740964651107788
1667255124039747300,2.145747314453125,-0.0256563201546669,0.049480047076940536,0.18387030065059662
1667255124042226700,2.148226806640625,-0.02626718580722809,0.033597562462091446,0.19730933010578156
1667255124044705800,2.150705810546875,-0.02932151034474373,0.01893680728971958,0.2101374864578247
1667255124047185200,2.15318505859375,-0.03481929376721382,0.006108647678047419,0.22418737411499023
1667255124049664500,2.15566455078125,-0.04276053607463837,-0.003665188793092966,0.2412915825843811
1667255124052143600,2.1581435546875,-0.0513126403093338,-0.006719512399286032,0.2614501118659973
1667255124054623000,2.160623046875,-0.06475166976451874,-0.006108647678047419,0.28405213356018066
1667255124057102300,2.163102294921875,-0.07819069176912308,-0.0030543238390237093,0.3078758418560028
1667255124059581400,2.16558154296875,-0.09101885557174683,0.001832594396546483,0.3341430425643921
1667255124062060800,2.168060791015625,-0.10506874322891235,0.006719512399286032,0.3634645342826843
1667255124064540000,2.170539794921875,-0.11484257876873016,0.01282816007733345,0.3909534513950348
1667255124067019300,2.173019287109375,-0.12644900381565094,0.017715077847242355,0.4159989058971405
1667255124069498600,2.17549853515625,-0.13744457066059113,0.023823726922273636,0.4410443603992462
1667255124071977700,2.177977783203125,-0.14599667489528656,0.02932151034474373,0.4612029194831848
1667255124074457000,2.18045703125,-0.15760311484336853,0.036651886999607086,0.47952884435653687
1667255124076936400,2.1829365234375,-0.16615521907806396,0.0409279391169548,0.4929678738117218
1667255124079415600,2.18541552734375,-0.17592905461788177,0.046425722539424896,0.5045742988586426
1667255124081895000,2.18789501953125,-0.18631376326084137,0.049480047076940536,0.5100721120834351
1667255124084374300,2.190374267578125,-0.19608759880065918,0.049480047076940536,0.5137372612953186
1667255124086853400,2.192853271484375,-0.20769402384757996,0.04886918142437935,0.5125155448913574
1667255124089332700,2.195332763671875,-0.2162461280822754,0.043982263654470444,0.5076286196708679
1667255124091812000,2.19781201171875,-0.22479823231697083,0.037262752652168274,0.5033525824546814
1667255124094291200,2.200291259765625,-0.2315177470445633,0.027488915249705315,0.49480047821998596
1667255124096770600,2.2027705078125,-0.2370155304670334,0.01649334840476513,0.48563748598098755
1667255124099249700,2.205249755859375,-0.24312418699264526,0.004886918235570192,0.47586366534233093
1667255124101729000,2.20772900390625,-0.24495677649974823,-0.006719512399286032,0.46425724029541016
1667255124104208400,2.21020849609375,-0.24556763470172882,-0.017104214057326317,0.4526508152484894
1667255124106687500,2.2126875,-0.24495677649974823,-0.027488915249705315,0.44348782300949097
1667255124109166800,2.215166748046875,-0.24373504519462585,-0.036651886999607086,0.43432486057281494
1667255124111646200,2.217646240234375,-0.2406807243824005,-0.04459312930703163,0.42821621894836426
1667255124114125300,2.220125244140625,-0.23945899307727814,-0.05070177838206291,0.42088583111763
1667255124116604700,2.222604736328125,-0.235793799161911,-0.05558869615197182,0.41783151030540466
1667255124119084000,2.225083984375,-0.235793799161911,-0.05803215503692627,0.4153880476951599
1667255124121563100,2.227563232421875,-0.23457208275794983,-0.059864748269319534,0.41294458508491516
1667255124124042500,2.23004248046875,-0.23273947834968567,-0.056810423731803894,0.41416633129119873
1667255124126521600,2.232521484375,-0.23273947834968567,-0.05253437161445618,0.41416633129119873
1667255124129001000,2.2350009765625,-0.23273947834968567,-0.04581485688686371,0.41294458508491516
1667255124131480300,2.237480224609375,-0.23273947834968567,-0.03481929376721382,0.41355544328689575
1667255124133959400,2.23995947265625,-0.23212862014770508,-0.02260199747979641,0.4111120104789734
1667255124136438800,2.242438720703125,-0.2315177470445633,-0.006719512399286032,0.40866854786872864
1667255124138918100,2.244918212890625,-0.23029601573944092,0.009773836471140385,0.401949018239975
1667255124141397200,2.247397216796875,-0.22724169492721558,0.031154103577136993,0.39339691400527954
1667255124143876600,2.249876708984375,-0.22174391150474548,0.05497783049941063,0.3805687427520752
1667255124146356000,2.25235595703125,-0.21380266547203064,0.0824667438864708,0.3659079968929291
1667255124148835000,2.2548349609375,-0.20463970303535461,0.10995566099882126,0.35124725103378296
1667255124151314400,2.257314453125,-0.19303326308727264,0.13988803327083588,0.3335321843624115
1667255124153793800,2.259793701171875,-0.18081597983837128,0.16737695038318634,0.31459537148475647
1667255124156273000,2.26227294921875,-0.1649334877729416,0.1948658674955368,0.29504770040512085
1667255124158752300,2.264752197265625,-0.15088360011577606,0.21991132199764252,0.27427828311920166
1667255124161231400,2.2672314453125,-0.13561198115348816,0.24373504519462585,0.2522871494293213
1667255124163710700,2.269710693359375,-0.12095122784376144,0.2663370370864868,0.22907429933547974
1667255124166190000,2.272190185546875,-0.10629047453403473,0.28588470816612244,0.20769402384757996
1667255124168669200,2.274669189453125,-0.0922405794262886,0.30115634202957153,0.185092031955719
1667255124171148500,2.2771484375,-0.08124501258134842,0.31520622968673706,0.16065743565559387
1667255124173628000,2.2796279296875,-0.07024945318698883,0.3274235129356384,0.13439024984836578
1667255124176107000,2.28210693359375,-0.06291907280683517,0.33658650517463684,0.10751219838857651
1667255124178586400,2.28458642578125,-0.0616973415017128,0.34147340059280396,0.07819069176912308
1667255124181065700,2.287065673828125,-0.06047561392188072,0.34636032581329346,0.04886918142437935
1667255124183544800,2.289544921875,-0.06536252796649933,0.3451386094093323,0.017715077847242355
1667255124186024200,2.292024169921875,-0.0720820426940918,0.337808221578598,-0.01282816007733345
1667255124188503300,2.29450341796875,-0.0824667438864708,0.32681265473365784,-0.04276053607463837
1667255124190982700,2.296982666015625,-0.09346231073141098,0.31154105067253113,-0.07269290834665298
1667255124193462000,2.2994619140625,-0.10751219838857651,0.2938259541988373,-0.09896009415388107
1667255124195941000,2.301941162109375,-0.12217295914888382,0.27366742491722107,-0.11972949653863907
1667255124198420500,2.30442041015625,-0.13500112295150757,0.2528980076313019,-0.13683371245861053
1667255124200899800,2.30689990234375,-0.14782927930355072,0.23518294095993042,-0.14782927930355072
1667255124203379000,2.30937890625,-0.16065743565559387,0.22235478460788727,-0.1539379209280014
1667255124205858300,2.3118583984375,-0.1698204129934311,0.21319180727005005,-0.15149445831775665
1667255124208337400,2.31433740234375,-0.17837251722812653,0.2101374864578247,-0.1441640853881836
1667255124210816800,2.316816650390625,-0.185092031955719,0.21197007596492767,-0.1282816082239151
1667255124213296000,2.319296142578125,-0.1893680840730667,0.21991132199764252,-0.10690133273601532
1667255124215775200,2.321775146484375,-0.1899789422750473,0.23029601573944092,-0.07941242307424545
1667255124218254600,2.324254638671875,-0.1893680840730667,0.2412915825843811,-0.047036588191986084
1667255124220734000,2.32673388671875,-0.18387030065059662,0.2516762912273407,-0.013439024798572063
1667255124223213000,2.329213134765625,-0.17715078592300415,0.2608392536640167,0.021380268037319183
1667255124225692400,2.3316923828125,-0.1698204129934311,0.2675587832927704,0.05742128938436508
1667255124228171500,2.334171630859375,-0.1588248461484909,0.27000224590301514,0.09285144507884979
1667255124230651000,2.33665087890625,-0.15088360011577606,0.27000224590301514,0.12400554865598679
1667255124233130200,2.339130126953125,-0.14172062277793884,0.26389357447624207,0.1533270627260208
1667255124235609300,2.341609375,-0.13622283935546875,0.25411975383758545,0.1747073233127594
1667255124238088700,2.344088623046875,-0.12950333952903748,0.24251331388950348,0.19364413619041443
1667255124240568000,2.346568115234375,-0.12461641430854797,0.22724169492721558,0.20830489695072174
1667255124243047200,2.349047119140625,-0.1185077652335167,0.20708316564559937,0.2211330533027649
1667255124245526500,2.351526611328125,-0.11239911615848541,0.18814635276794434,0.22785256803035736
1667255124248006000,2.354005859375,-0.10934479534626007,0.17043127119541168,0.23273947834968567
1667255124250485000,2.356485107421875,-0.10323614627122879,0.15088360011577606,0.235793799161911
1667255124252964400,2.35896435546875,-0.0977383628487587,0.1331685185432434,0.23518294095993042
1667255124255443700,2.361443603515625,-0.09468404203653336,0.11545344442129135,0.23212862014770508
1667255124257922800,2.3639228515625,-0.08796452730894089,0.10201441496610641,0.22663083672523499
1667255124260402200,2.366402099609375,-0.08429934084415436,0.09285144507884979,0.2205221801996231
1667255124262881500,2.368881591796875,-0.08063415437936783,0.09040798991918564,0.21258094906806946
1667255124265360600,2.371360595703125,-0.07819069176912308,0.09407317638397217,0.20219624042510986
1667255124267840000,2.373840087890625,-0.07391463965177536,0.10445787757635117,0.19242240488529205
1667255124270319000,2.376319091796875,-0.07024945318698883,0.1178968995809555,0.17898337543010712
1667255124272798500,2.378798583984375,-0.06352993845939636,0.13194678723812103,0.16737695038318634
1667255124275277800,2.38127783203125,-0.056810423731803894,0.14660754799842834,0.15210533142089844
1667255124277757000,2.3837568359375,-0.049480047076940536,0.1588248461484909,0.13194678723812103
1667255124280236300,2.386236328125,-0.043982263654470444,0.17104214429855347,0.11545344442129135
1667255124282715600,2.388715576171875,-0.037262752652168274,0.17715078592300415,0.09529490768909454
1667255124285194800,2.39119482421875,-0.034208428114652634,0.18325942754745483,0.07513637095689774
1667255124287674000,2.393674072265625,-0.030543239787220955,0.18570289015769958,0.05925388261675835
1667255124290153500,2.396153564453125,-0.030543239787220955,0.18387030065059662,0.043982263654470444
1667255124292632600,2.398632568359375,-0.02932151034474373,0.17531819641590118,0.030543239787220955
1667255124295112000,2.40111181640625,-0.03237583488225937,0.16310089826583862,0.020158538594841957
1667255124297591300,2.40359130859375,-0.0360410213470459,0.14538581669330597,0.013439024798572063
1667255124300070400,2.4060703125,-0.04214967042207718,0.12705987691879272,0.010995565913617611
1667255124302549800,2.4085498046875,-0.04886918142437935,0.10873392969369888,0.012217295356094837
1667255124305028900,2.41102880859375,-0.05558869615197182,0.08857539296150208,0.020158538594841957
1667255124307508200,2.41350830078125,-0.06230820715427399,0.06597339361906052,0.029932374134659767
1667255124309987600,2.415987548828125,-0.06841685622930527,0.04581485688686371,0.046425722539424896
1667255124312466700,2.418466796875,-0.07330377399921417,0.02871064469218254,0.0665842592716217
1667255124314946000,2.420946044921875,-0.07819069176912308,0.011606430634856224,0.0873536616563797
1667255124317425400,2.42342529296875,-0.08063415437936783,-0.004886918235570192,0.11178825795650482
1667255124319904500,2.425904541015625,-0.08307760953903198,-0.02260199747979641,0.13622283935546875
1667255124322384000,2.4283837890625,-0.08674279600381851,-0.03848448023200035,0.16310089826583862
1667255124324863000,2.430863037109375,-0.08918625861406326,-0.056199558079242706,0.18753549456596375
1667255124327342300,2.43334228515625,-0.09162971377372742,-0.06963858753442764,0.21319180727005005
1667255124329821700,2.43582177734375,-0.09346231073141098,-0.0818558782339096,0.235793799161911
1667255124332300800,2.43830078125,-0.09651663154363632,-0.09346231073141098,0.2565632164478302
1667255124334780200,2.4407802734375,-0.10079269111156464,-0.10018182545900345,0.2724456787109375
1667255124337259500,2.443259521484375,-0.10506874322891235,-0.1026252806186676,0.2883281707763672
1667255124339738600,2.445738525390625,-0.1081230640411377,-0.10384701192378998,0.2987128794193268
1667255124342218000,2.448218017578125,-0.11117739230394363,-0.10018182545900345,0.30543237924575806
1667255124344697300,2.450697265625,-0.1130099818110466,-0.09407317638397217,0.3072649836540222
1667255124347176400,2.453176513671875,-0.11362084746360779,-0.09285144507884979,0.3042106628417969
1667255124349655800,2.45565576171875,-0.11362084746360779,-0.09407317638397217,0.2993237376213074
1667255124352135200,2.45813525390625,-0.11545344442129135,-0.0977383628487587,0.287106454372406
1667255124354614300,2.4606142578125,-0.11484257876873016,-0.1026252806186676,0.2706131041049957
1667255124357093600,2.46309375,-0.11728604137897491,-0.10995566099882126,0.24923282861709595
1667255124359572700,2.46557275390625,-0.1185077652335167,-0.11606431007385254,0.22846342623233795
1667255124362052000,2.468052001953125,-0.11911863088607788,-0.12400554865598679,0.20463970303535461
1667255124364531500,2.470531494140625,-0.12278381735086441,-0.13133592903614044,0.17898337543010712
1667255124367010600,2.473010498046875,-0.12644900381565094,-0.14049890637397766,0.15699224174022675
1667255124369490000,2.475489990234375,-0.12767073512077332,-0.14477495849132538,0.13439024984836578
1667255124371969300,2.47796923828125,-0.13255766034126282,-0.1484401375055313,0.10995566099882126
1667255124374448400,2.480448486328125,-0.1337793916463852,-0.14782927930355072,0.08918625861406326
1667255124376927700,2.482927734375,-0.13683371245861053,-0.14110976457595825,0.06902772188186646
1667255124379407000,2.485406982421875,-0.13683371245861053,-0.12950333952903748,0.053145237267017365
1667255124381886200,2.48788623046875,-0.13561198115348816,-0.11606431007385254,0.03787361457943916
1667255124384365600,2.490365478515625,-0.13622283935546875,-0.0977383628487587,0.023212861269712448
1667255124386845000,2.492844970703125,-0.13561198115348816,-0.07819069176912308,0.009162971749901772
1667255124389324000,2.495323974609375,-0.13500112295150757,-0.053145237267017365,-0.002443459117785096
1667255124391803400,2.497803466796875,-0.1380554437637329,-0.0256563201546669,-0.012217295356094837
1667255124394282800,2.50028271484375,-0.14294235408306122,0.007330377586185932,-0.020158538594841957
1667255124396761900,2.502761962890625,-0.1496618688106537,0.04214967042207718,-0.02932151034474373
1667255124399241200,2.5052412109375,-0.16126830875873566,0.08124501258134842,-0.03481929376721382
1667255124401720300,2.50772021484375,-0.17165300250053406,0.1233946830034256,-0.036651886999607086
1667255124404199700,2.51019970703125,-0.18325942754745483,0.16676609218120575,-0.037262752652168274
1667255124406679000,2.512678955078125,-0.19608759880065918,0.2107483446598053,-0.036651886999607086
1667255124409158100,2.515158203125,-0.20830489695072174,0.2522871494293213,-0.033597562462091446
1667255124411637500,2.517637451171875,-0.21746785938739777,0.2932150959968567,-0.030543239787220955
1667255124414116900,2.520116943359375,-0.22479823231697083,0.33231043815612793,-0.026878049597144127
1667255124416596000,2.522595947265625,-0.2315177470445633,0.36774060130119324,-0.01893680728971958
1667255124419075300,2.525075439453125,-0.23762640357017517,0.3952295184135437,-0.018325943499803543
1667255124421554700,2.5275546875,-0.23823726177215576,0.41416633129119873,-0.011606430634856224
1667255124424033800,2.53003369140625,-0.24006985127925873,0.42455101013183594,-0.010384701192378998
1667255124426513200,2.53251318359375,-0.2406807243824005,0.4269944727420807,-0.009162971749901772
1667255124428992300,2.5349921875,-0.24312418699264526,0.41905322670936584,-0.006719512399286032
1667255124431471600,2.5374716796875,-0.24434591829776764,0.40866854786872864,-0.006108647678047419
1667255124433951000,2.539950927734375,-0.24740023910999298,0.39278605580329895,-0.004276053514331579
1667255124436430000,2.54243017578125,-0.25045454502105713,0.37201663851737976,0.000610864779446274
1667255124438909400,2.544909423828125,-0.25350889563560486,0.3500255048274994,0.0054977829568088055
1667255124441388800,2.547388916015625,-0.2559523284435272,0.3298669755458832,0.01649334840476513
1667255124443868000,2.549867919921875,-0.2571740746498108,0.3042106628417969,0.024434590712189674
1667255124446347300,2.55234716796875,-0.25900667905807495,0.277332603931427,0.0360410213470459
1667255124448826600,2.55482666015625,-0.26022839546203613,0.2516762912273407,0.046425722539424896
1667255124451305700,2.5573056640625,-0.26022839546203613,0.2260199636220932,0.056810423731803894
1667255124453785000,2.55978515625,-0.2626718580722809,0.19914191961288452,0.06719512492418289
1667255124456264400,2.562264404296875,-0.2620609998703003,0.17104214429855347,0.07391463965177536
1667255124458743600,2.56474365234375,-0.26389357447624207,0.14538581669330597,0.0824667438864708
1667255124461223000,2.567222900390625,-0.26450446248054504,0.1185077652335167,0.0922405794262886
1667255124463702300,2.569702392578125,-0.2657261788845062,0.09101885557174683,0.10201441496610641
1667255124466181400,2.572181396484375,-0.2663370370864868,0.06047561392188072,0.11362084746360779
1667255124468660700,2.57466064453125,-0.2657261788845062,0.02932151034474373,0.12583814561367035
1667255124471140000,2.57714013671875,-0.2632827162742615,-0.004276053514331579,0.1386663019657135
1667255124473619200,2.579619140625,-0.25900667905807495,-0.03543015569448471,0.1539379209280014
1667255124476098600,2.5820986328125,-0.25411975383758545,-0.06780599057674408,0.1698204129934311
1667255124478577700,2.58457763671875,-0.24923282861709595,-0.0977383628487587,0.18692462146282196
1667255124481057000,2.58705712890625,-0.2467893660068512,-0.12644900381565094,0.20463970303535461
1667255124483536400,2.589536376953125,-0.2419024556875229,-0.15149445831775665,0.22174391150474548
1667255124486015500,2.592015380859375,-0.23762640357017517,-0.17226386070251465,0.2364046722650528
1667255124488494800,2.594494873046875,-0.2364046722650528,-0.18814635276794434,0.24984370172023773
1667255124490974200,2.59697412109375,-0.2364046722650528,-0.1997527778148651,0.258395791053772
1667255124493453300,2.599453369140625,-0.23518294095993042,-0.20891575515270233,0.2669478952884674
1667255124495932700,2.6019326171875,-0.23396120965480804,-0.21502439677715302,0.2730565667152405
1667255124498411800,2.604411865234375,-0.23335035145282745,-0.21685700118541718,0.2779434621334076
1667255124500891100,2.60689111328125,-0.23212862014770508,-0.21807873249053955,0.27977606654167175
1667255124503370500,2.60937060546875,-0.23029601573944092,-0.2156352698802948,0.27855435013771057
1667255124505849600,2.611849609375,-0.2254091054201126,-0.21319180727005005,0.2761108875274658
1667255124508329000,2.614328857421875,-0.2211330533027649,-0.2101374864578247,0.2712239623069763
1667255124510808300,2.616808349609375,-0.21441353857517242,-0.20463970303535461,0.26022839546203613
1667255124513287400,2.619287353515625,-0.20830489695072174,-0.1954767256975174,0.24862197041511536
1667255124515766800,2.621766845703125,-0.20280711352825165,-0.1844811588525772,0.23273947834968567
1667255124518246100,2.62424609375,-0.19608759880065918,-0.17287473380565643,0.21807873249053955
1667255124520725200,2.626725341796875,-0.1893680840730667,-0.16004657745361328,0.20341797173023224
1667255124523204600,2.62920458984375,-0.18142683804035187,-0.14599667489528656,0.18631376326084137
1667255124525684000,2.63168408203125,-0.17348559200763702,-0.1282816082239151,0.17348559200763702
1667255124528163000,2.6341630859375,-0.16554436087608337,-0.10629047453403473,0.16126830875873566
1667255124530642400,2.636642333984375,-0.15699224174022675,-0.08124501258134842,0.1496618688106537
1667255124533121800,2.639121826171875,-0.143553227186203,-0.05497783049941063,0.13988803327083588
1667255124535601000,2.641600830078125,-0.13072505593299866,-0.026878049597144127,0.13072505593299866
1667255124538080300,2.644080322265625,-0.11606431007385254,-0.000610864779446274,0.12278381735086441
1667255124540559600,2.6465595703125,-0.09957095980644226,0.025045456364750862,0.11362084746360779
1667255124543038700,2.649038818359375,-0.08552107214927673,0.04825831577181816,0.10384701192378998
1667255124545518000,2.65151806640625,-0.06780599057674408,0.06841685622930527,0.09529490768909454
1667255124547997400,2.65399755859375,-0.053145237267017365,0.0818558782339096,0.08491020649671555
1667255124550476500,2.6564765625,-0.0409279391169548,0.09040798991918564,0.07635809481143951
1667255124552956000,2.658955810546875,-0.0256563201546669,0.09285144507884979,0.06780599057674408
1667255124555435000,2.66143505859375,-0.01282816007733345,0.08979712426662445,0.06230820715427399
1667255124557914400,2.663914306640625,0,0.08124501258134842,0.05558869615197182
1667255124560393700,2.666393798828125,0.010384701192378998,0.06841685622930527,0.05253437161445618
1667255124562872800,2.668872802734375,0.018325943499803543,0.05192350596189499,0.049480047076940536
1667255124565352200,2.671352294921875,0.02871064469218254,0.031154103577136993,0.04825831577181816
1667255124567831600,2.67383154296875,0.03543015569448471,0.011606430634856224,0.04825831577181816
1667255124570310700,2.676310546875,0.040317077189683914,-0.009773836471140385,0.046425722539424896
1667255124572790000,2.6787900390625,0.04520399495959282,-0.03237583488225937,0.043982263654470444
1667255124575269000,2.68126904296875,0.04825831577181816,-0.05497783049941063,0.043982263654470444
1667255124577748500,2.68374853515625,0.04825831577181816,-0.07757982611656189,0.040317077189683914
1667255124580227800,2.686227783203125,0.04886918142437935,-0.10201441496610641,0.039706211537122726
1667255124582707000,2.68870703125,0.05253437161445618,-0.12522727251052856,0.03848448023200035
1667255124585186300,2.691186279296875,0.05253437161445618,-0.14538581669330597,0.03787361457943916
1667255124587665700,2.693665771484375,0.05558869615197182,-0.164322629570961,0.037262752652168274
1667255124590144800,2.696144775390625,0.05558869615197182,-0.17592905461788177,0.03848448023200035
1667255124592624000,2.6986240234375,0.056199558079242706,-0.18264856934547424,0.040317077189683914
1667255124595103500,2.701103515625,0.05497783049941063,-0.18203771114349365,0.043371398001909256
1667255124597582600,2.70358251953125,0.056199558079242706,-0.17531819641590118,0.04886918142437935
1667255124600062000,2.70606201171875,0.056810423731803894,-0.16554436087608337,0.05742128938436508
1667255124602541300,2.708541259765625,0.05803215503692627,-0.1533270627260208,0.06902772188186646
1667255124605020400,2.7110205078125,0.056199558079242706,-0.13988803327083588,0.08002328872680664
1667255124607499800,2.713499755859375,0.056199558079242706,-0.12217295914888382,0.09468404203653336
1667255124609979100,2.715979248046875,0.05558869615197182,-0.10323614627122879,0.10934479534626007
1667255124612458200,2.718458251953125,0.053756099194288254,-0.08002328872680664,0.12461641430854797
1667255124614937600,2.7209375,0.053756099194288254,-0.056199558079242706,0.14110976457595825
1667255124617417000,2.7234169921875,0.05253437161445618,-0.03481929376721382,0.1533270627260208
1667255124619896000,2.72589599609375,0.05558869615197182,-0.01649334840476513,0.1698204129934311
1667255124622375400,2.72837548828125,0.05864302068948746,0,0.18264856934547424
1667255124624854800,2.730854736328125,0.059864748269319534,0.014049889519810677,0.19181154668331146
1667255124627334000,2.733333984375,0.06230820715427399,0.023823726922273636,0.20402882993221283
1667255124629813200,2.735813232421875,0.06414080411195755,0.03298669680953026,0.2107483446598053
1667255124632292400,2.738292236328125,0.06352993845939636,0.040317077189683914,0.21991132199764252
1667255124634771700,2.740771728515625,0.06108647957444191,0.04520399495959282,0.2260199636220932
1667255124637251000,2.7432509765625,0.056199558079242706,0.05070177838206291,0.2309068888425827
1667255124639730200,2.745730224609375,0.04886918142437935,0.05558869615197182,0.235793799161911
1667255124642209500,2.74820947265625,0.03787361457943916,0.059864748269319534,0.2370155304670334
1667255124644689000,2.75068896484375,0.02932151034474373,0.06414080411195755,0.23823726177215576
1667255124647168000,2.75316796875,0.018325943499803543,0.06597339361906052,0.23823726177215576
1667255124649647400,2.7556474609375,0.007330377586185932,0.0665842592716217,0.2370155304670334
1667255124652126700,2.758126708984375,-0.004886918235570192,0.06414080411195755,0.23518294095993042
1667255124654605800,2.760605712890625,-0.01588248461484909,0.06047561392188072,0.23396120965480804
1667255124657085200,2.763085205078125,-0.02932151034474373,0.05497783049941063,0.2309068888425827
1667255124659564500,2.765564453125,-0.04276053607463837,0.04886918142437935,0.22907429933547974
1667255124662043600,2.768043701171875,-0.056810423731803894,0.0409279391169548,0.22663083672523499
1667255124664523000,2.77052294921875,-0.06963858753442764,0.03481929376721382,0.22724169492721558
1667255124667002400,2.77300244140625,-0.08307760953903198,0.028099779039621353,0.22846342623233795
1667255124669481500,2.7754814453125,-0.09468404203653336,0.023823726922273636,0.23335035145282745
1667255124671960800,2.7779609375,-0.1026252806186676,0.020158538594841957,0.23945899307727814
1667255124674440200,2.780440185546875,-0.10934479534626007,0.017104214057326317,0.2461785078048706
1667255124676919300,2.782919189453125,-0.1130099818110466,0.017104214057326317,0.2565632164478302
1667255124679398700,2.785398681640625,-0.11667517572641373,0.01893680728971958,0.2663370370864868
1667255124681878000,2.7878779296875,-0.11545344442129135,0.020769402384757996,0.27855435013771057
1667255124684357000,2.790357177734375,-0.1130099818110466,0.023823726922273636,0.29077163338661194
1667255124686836500,2.79283642578125,-0.1130099818110466,0.029932374134659767,0.29993459582328796
1667255124689315600,2.795315673828125,-0.11056652665138245,0.03481929376721382,0.31093016266822815
1667255124691795000,2.797794921875,-0.10934479534626007,0.04581485688686371,0.3194822669029236
1667255124694274300,2.8002744140625,-0.11056652665138245,0.05864302068948746,0.328645259141922
1667255124696753400,2.80275341796875,-0.1130099818110466,0.07269290834665298,0.33169957995414734
1667255124699232800,2.805232666015625,-0.11606431007385254,0.08918625861406326,0.33658650517463684
1667255124701712100,2.807712158203125,-0.11972949653863907,0.10751219838857651,0.337808221578598
1667255124704191200,2.810191162109375,-0.12278381735086441,0.12461641430854797,0.337808221578598
1667255124706670600,2.812670654296875,-0.1282816082239151,0.13927717506885529,0.3341430425643921
1667255124709150000,2.81514990234375,-0.1288924664258957,0.1539379209280014,0.32620179653167725
1667255124711629000,2.817629150390625,-0.13133592903614044,0.164322629570961,0.3170388340950012
1667255124714108400,2.8201083984375,-0.1337793916463852,0.17226386070251465,0.3029889166355133
1667255124716587800,2.822587890625,-0.13194678723812103,0.17837251722812653,0.29016077518463135
1667255124719067000,2.82506689453125,-0.13255766034126282,0.18081597983837128,0.27916520833969116
1667255124721546200,2.827546142578125,-0.13439024984836578,0.18387030065059662,0.2706131041049957
1667255124724025600,2.830025634765625,-0.1331685185432434,0.18814635276794434,0.2626718580722809
1667255124726504700,2.832504638671875,-0.1331685185432434,0.19364413619041443,0.25534147024154663
1667255124728984000,2.834984130859375,-0.13072505593299866,0.20158538222312927,0.2516762912273407
1667255124731463400,2.83746337890625,-0.13072505593299866,0.20952661335468292,0.24984370172023773
1667255124733942500,2.839942626953125,-0.13133592903614044,0.21502439677715302,0.24862197041511536
1667255124736422000,2.842421875,-0.1288924664258957,0.22174391150474548,0.24923282861709595
1667255124738901200,2.8449013671875,-0.12950333952903748,0.22907429933547974,0.25045454502105713
1667255124741380400,2.84738037109375,-0.12950333952903748,0.23335035145282745,0.2516762912273407
1667255124743859700,2.849859619140625,-0.1282816082239151,0.23823726177215576,0.25350889563560486
1667255124746338800,2.8523388671875,-0.13011419773101807,0.23945899307727814,0.25473061203956604
1667255124748818200,2.854818115234375,-0.13011419773101807,0.2370155304670334,0.2571740746498108
1667255124751297500,2.857297607421875,-0.1288924664258957,0.235793799161911,0.2577849328517914
1667255124753776600,2.859776611328125,-0.12767073512077332,0.22968515753746033,0.25900667905807495
1667255124756256000,2.862256103515625,-0.12644900381565094,0.22418737411499023,0.258395791053772
1667255124758735400,2.8647353515625,-0.12034036219120026,0.21930044889450073,0.25350889563560486
1667255124761214500,2.86721435546875,-0.11239911615848541,0.21319180727005005,0.24984370172023773
1667255124763693800,2.86969384765625,-0.1026252806186676,0.20463970303535461,0.24251331388950348
1667255124766173200,2.872173095703125,-0.09162971377372742,0.1954767256975174,0.2364046722650528
1667255124768652300,2.87465234375,-0.0769689604640007,0.18325942754745483,0.22785256803035736
1667255124771131600,2.877131591796875,-0.06230820715427399,0.17104214429855347,0.21991132199764252
1667255124773611000,2.879611083984375,-0.04581485688686371,0.15699224174022675,0.21197007596492767
1667255124776090000,2.882090087890625,-0.027488915249705315,0.1441640853881836,0.20341797173023224
1667255124778569500,2.884569580078125,-0.011606430634856224,0.13011419773101807,0.19669845700263977
1667255124781048800,2.887048828125,0.0054977829568088055,0.11728604137897491,0.1893680840730667
1667255124783528000,2.88952783203125,0.02260199747979641,0.10751219838857651,0.18570289015769958
1667255124786007300,2.89200732421875,0.03787361457943916,0.09834922850131989,0.1844811588525772
1667255124788486700,2.894486572265625,0.05436696484684944,0.08979712426662445,0.18631376326084137
1667255124790965800,2.8969658203125,0.06963858753442764,0.0818558782339096,0.1893680840730667
1667255124793445000,2.899445068359375,0.08552107214927673,0.07391463965177536,0.1954767256975174
1667255124795924200,2.90192431640625,0.09896009415388107,0.06780599057674408,0.20158538222312927
1667255124798403600,2.904403564453125,0.11239911615848541,0.06230820715427399,0.20891575515270233
1667255124800883000,2.906883056640625,0.12522727251052856,0.053756099194288254,0.21991132199764252
1667255124803362000,2.909362060546875,0.13683371245861053,0.046425722539424896,0.22907429933547974
1667255124805841400,2.91184130859375,0.14538581669330597,0.03909534588456154,0.2406807243824005
1667255124808320800,2.91432080078125,0.15271618962287903,0.03237583488225937,0.25045454502105713
1667255124810799900,2.9167998046875,0.16004657745361328,0.025045456364750862,0.2614501118659973
1667255124813279200,2.919279296875,0.16615521907806396,0.018325943499803543,0.2712239623069763
1667255124815758600,2.921758544921875,0.1692095398902893,0.010995565913617611,0.27977606654167175
1667255124818237700,2.92423779296875,0.17104214429855347,0.001832594396546483,0.2877173125743866
1667255124820717000,2.926717041015625,0.17043127119541168,-0.006719512399286032,0.2981020212173462
1667255124823196400,2.929196533203125,0.1698204129934311,-0.01649334840476513,0.3042106628417969
1667255124825675500,2.931675537109375,0.164322629570961,-0.0256563201546669,0.31154105067253113
1667255124828155000,2.93415478515625,0.16004657745361328,-0.0360410213470459,0.3194822669029236
1667255124830634200,2.93663427734375,0.1533270627260208,-0.046425722539424896,0.32620179653167725
1667255124833113300,2.93911328125,0.14721840620040894,-0.05864302068948746,0.3341430425643921
1667255124835592700,2.9415927734375,0.1386663019657135,-0.06963858753442764,0.34147340059280396
1667255124838072000,2.944072021484375,0.13255766034126282,-0.08124501258134842,0.34697118401527405
1667255124840551200,2.94655126953125,0.12461641430854797,-0.09407317638397217,0.3530798554420471
1667255124843030500,2.949030517578125,0.11911863088607788,-0.10567960888147354,0.35735589265823364
1667255124845510000,2.951510009765625,0.11362084746360779,-0.11911863088607788,0.35796675086021423
1667255124847989000,2.953989013671875,0.1081230640411377,-0.13194678723812103,0.3585776388645172
1667255124850468400,2.95646826171875,0.10506874322891235,-0.1441640853881836,0.35613417625427246
1667255124852947500,2.958947509765625,0.10079269111156464,-0.15515965223312378,0.35246896743774414
1667255124855426800,2.9614267578125,0.09896009415388107,-0.1649334877729416,0.3500255048274994
1667255124857906200,2.96390625,0.09651663154363632,-0.17104214429855347,0.3451386094093323
1667255124860385300,2.96638525390625,0.09590577334165573,-0.17531819641590118,0.3384190797805786
1667255124862864600,2.96886474609375,0.09651663154363632,-0.17776164412498474,0.3341430425643921
1667255124865344000,2.971343994140625,0.09896009415388107,-0.1795942485332489,0.328645259141922
1667255124867823000,2.973822998046875,0.10629047453403473,-0.17898337543010712,0.32559093832969666
1667255124870302500,2.976302490234375,0.11239911615848541,-0.17898337543010712,0.3249800503253937
1667255124872781800,2.97878173828125,0.12278381735086441,-0.17715078592300415,0.32192572951316833
1667255124875261000,2.981260986328125,0.13255766034126282,-0.17715078592300415,0.32070401310920715
1667255124877740300,2.983740234375,0.14294235408306122,-0.17592905461788177,0.3182605504989624
1667255124880219600,2.9862197265625,0.15271618962287903,-0.17043127119541168,0.3133736252784729
1667255124882698800,2.98869873046875,0.15760311484336853,-0.16554436087608337,0.3090975880622864
1667255124885178000,2.99117822265625,0.164322629570961,-0.1588248461484909,0.3042106628417969
1667255124887657500,2.993657470703125,0.16554436087608337,-0.15149445831775665,0.2932150959968567
1667255124890136600,2.996136474609375,0.16615521907806396,-0.14721840620040894,0.2828303873538971
1667255124892616000,2.998615966796875,0.16676609218120575,-0.14294235408306122,0.2706131041049957
1667255124895095300,3.00109521484375,0.16737695038318634,-0.13988803327083588,0.25473061203956604
1667255124897574400,3.003574462890625,0.164322629570961,-0.13744457066059113,0.2406807243824005
1667255124900053800,3.0060537109375,0.16126830875873566,-0.13255766034126282,0.2260199636220932
1667255124902533000,3.008533203125,0.15638138353824615,-0.12278381735086441,0.20952661335468292
1667255124905012200,3.01101220703125,0.15088360011577606,-0.10873392969369888,0.1948658674955368
1667255124907491600,3.01349169921875,0.14294235408306122,-0.09101885557174683,0.18142683804035187
1667255124909971000,3.015970947265625,0.13500112295150757,-0.07086031138896942,0.16737695038318634
1667255124912450000,3.018449951171875,0.12644900381565094,-0.047036588191986084,0.1545487940311432
1667255124914929400,3.020929443359375,0.1185077652335167,-0.01649334840476513,0.14172062277793884
1667255124917408800,3.02340869140625,0.1130099818110466,0.017715077847242355,0.12950333952903748
1667255124919888000,3.025887939453125,0.10995566099882126,0.05070177838206291,0.11423171311616898
1667255124922367200,3.0283671875,0.10629047453403473,0.08307760953903198,0.10079269111156464
1667255124924846600,3.0308466796875,0.10079269111156464,0.11423171311616898,0.08552107214927673
1667255124927325700,3.03332568359375,0.09712749719619751,0.14172062277793884,0.06963858753442764
1667255124929805000,3.03580517578125,0.09040798991918564,0.16859868168830872,0.053756099194288254
1667255124932284400,3.038284423828125,0.08368847519159317,0.19120067358016968,0.03848448023200035
1667255124934763500,3.040763427734375,0.07574722915887833,0.21441353857517242,0.02626718580722809
1667255124937243000,3.043242919921875,0.06841685622930527,0.23396120965480804,0.009773836471140385
1667255124939722200,3.04572216796875,0.05925388261675835,0.2528980076313019,-0.001832594396546483
1667255124942201300,3.048201416015625,0.05070177838206291,0.2712239623069763,-0.010995565913617611
1667255124944680700,3.0506806640625,0.03787361457943916,0.2889390289783478,-0.01954767294228077
1667255124947159800,3.053159912109375,0.02626718580722809,0.30543237924575806,-0.023823726922273636
1667255124949639200,3.05563916015625,0.012217295356094837,0.3249800503253937,-0.026878049597144127
1667255124952118500,3.058118408203125,-0.001832594396546483,0.34208428859710693,-0.025045456364750862
1667255124954597600,3.06059765625,-0.013439024798572063,0.35796675086021423,-0.01954767294228077
1667255124957077000,3.063076904296875,-0.02626718580722809,0.37201663851737976,-0.012217295356094837
1667255124959556400,3.065556396484375,-0.036651886999607086,0.37812530994415283,-0.0054977829568088055
1667255124962035500,3.068035400390625,-0.04520399495959282,0.3787361681461334,0.006719512399286032
1667255124964514800,3.070514892578125,-0.053756099194288254,0.3756818473339081,0.01954767294228077
1667255124966994200,3.072994140625,-0.059864748269319534,0.36774060130119324,0.03481929376721382
1667255124969473300,3.075473388671875,-0.06352993845939636,0.35613417625427246,0.050090912729501724
1667255124971952600,3.07795263671875,-0.06841685622930527,0.34147340059280396,0.06597339361906052
1667255124974432000,3.080431884765625,-0.07147117704153061,0.3231474757194519,0.0818558782339096
1667255124976911000,3.0829111328125,-0.0720820426940918,0.2987128794193268,0.09896009415388107
1667255124979390500,3.085390380859375,-0.07513637095689774,0.27366742491722107,0.11545344442129135
1667255124981869800,3.087869873046875,-0.08002328872680664,0.2467893660068512,0.13500112295150757
1667255124984349000,3.090348876953125,-0.0824667438864708,0.21746785938739777,0.15271618962287903
1667255124986828300,3.092828369140625,-0.08613193035125732,0.18753549456596375,0.17165300250053406
1667255124989307600,3.0953076171875,-0.09101885557174683,0.16187916696071625,0.18814635276794434
1667255124991786800,3.097786865234375,-0.09468404203653336,0.13683371245861053,0.20158538222312927
1667255124994266000,3.10026611328125,-0.09957095980644226,0.11484257876873016,0.2156352698802948
1667255124996745500,3.102745361328125,-0.10201441496610641,0.09346231073141098,0.22357651591300964
1667255124999224600,3.105224609375,-0.10140355676412582,0.07635809481143951,0.22785256803035736
1667255125001704000,3.107703857421875,-0.0977383628487587,0.06414080411195755,0.23029601573944092
1667255125004183300,3.110183349609375,-0.09101885557174683,0.053145237267017365,0.23212862014770508
1667255125006662400,3.112662353515625,-0.08063415437936783,0.043982263654470444,0.22968515753746033
1667255125009141800,3.115141845703125,-0.06597339361906052,0.036651886999607086,0.22785256803035736
1667255125011621000,3.11762109375,-0.04886918142437935,0.030543239787220955,0.2254091054201126
1667255125014100200,3.120100341796875,-0.031154103577136993,0.031154103577136993,0.22296564280986786
