time,seconds_elapsed,z,y,x
1667255121893254000,-0.00074609375,9.635896682739258,0.4666004180908203,1.6534404754638672
1667255121895733000,0.00173291015625,9.633503913879395,0.5048855543136597,1.6821542978286743
1667255121898212400,0.00421240234375,9.633503913879395,0.5168496966362,1.730010747909546
1667255121900691500,0.00669140625,9.635896682739258,0.5120640397071838,1.7826528549194336
1667255121903170800,0.0091708984375,9.640682220458984,0.4953143000602722,1.8544375896453857
1667255121905650200,0.011650146484375,9.643074989318848,0.49292147159576416,1.9334007501602173
1667255121908129300,0.01412939453125,9.631111145019531,0.46420758962631226,1.9884356260299683
1667255121910608600,0.016608642578125,9.626325607299805,0.44027936458587646,2.060220241546631
1667255121913087700,0.019087646484375,9.619147300720215,0.42352959513664246,2.1272194385528564
1667255121915567000,0.021567138671875,9.604789733886719,0.4163511395454407,2.1607189178466797
1667255121918046500,0.02404638671875,9.588040351867676,0.3756731450557709,2.179861545562744
1667255121920525600,0.026525634765625,9.549755096435547,0.34695929288864136,2.1894326210021973
1667255121923005000,0.0290048828125,9.485149383544922,0.32303106784820557,2.242074728012085
1667255121925484000,0.031484130859375,9.410971641540527,0.2799602448940277,2.282752752304077
1667255121927963400,0.03396337890625,9.372686386108398,0.2679961323738098,2.2923240661621094
1667255121930442800,0.03644287109375,9.394221305847168,0.2392822653055191,2.2707886695861816
1667255121932921900,0.038921875,9.408578872680664,0.21296121180057526,2.2636101245880127
1667255121935401200,0.041401123046875,9.384650230407715,0.1986042857170105,2.2372891902923584
1667255121937880600,0.043880615234375,9.315258979797363,0.17946170270442963,2.194218397140503
1667255121940359700,0.046359619140625,9.207581520080566,0.16749759018421173,2.1990039348602295
1667255121942839000,0.048839111328125,9.083154678344727,0.13639089465141296,2.2229323387145996
1667255121945318100,0.051318115234375,8.96829891204834,0.1339980661869049,2.227717876434326
1667255121947797500,0.053797607421875,8.879764556884766,0.13639089465141296,2.2468605041503906
1667255121950276900,0.05627685546875,8.779266357421875,0.13878370821475983,2.2468605041503906
1667255121952756000,0.058755859375,8.709874153137207,0.15074782073497772,2.2133610248565674
1667255121955235300,0.0612353515625,8.662017822265625,0.1459621787071228,2.187039852142334
1667255121957714400,0.06371435546875,8.638090133666992,0.12921242415905,2.1822543144226074
1667255121960193800,0.06619384765625,8.652446746826172,0.11246266216039658,2.1894326210021973
1667255121962673200,0.068673095703125,8.69791030883789,0.12681959569454193,2.2229323387145996
1667255121965152300,0.07115234375,8.724231719970703,0.1579262912273407,2.2612173557281494
1667255121967631600,0.073631591796875,8.733802795410156,0.1746760457754135,2.2923240661621094
1667255121970111000,0.076111083984375,8.724231719970703,0.2105683982372284,2.328216314315796
1667255121972590000,0.078590087890625,8.666803359985352,0.07657032459974289,2.2683959007263184
1667255121975069400,0.0810693359375,8.647661209106445,0.02392822690308094,2.2157537937164307
1667255121977548800,0.083548828125,8.767302513122559,0.19381862878799438,2.2683959007263184
1667255121980028000,0.08602783203125,8.970691680908203,0.4426721930503845,2.3401806354522705
1667255121982507300,0.08850732421875,9.198010444641113,0.6915257573127747,2.4335005283355713
1667255121984986400,0.090986328125,9.489934921264648,0.9332008361816406,2.541177749633789
1667255121987465700,0.0934658203125,9.80100154876709,1.1270195245742798,2.66560435295105
1667255121989945000,0.095945068359375,10.097711563110352,1.306481122970581,2.7732813358306885
1667255121992424200,0.098424072265625,10.40638542175293,1.4428720474243164,2.885744094848633
1667255121994903600,0.100903564453125,10.683953285217285,1.5409778356552124,2.964707374572754
1667255121997382700,0.103382568359375,10.951949119567871,1.5984054803848267,3.046063184738159
1667255121999862000,0.105862060546875,11.188838958740234,1.6151553392410278,3.1920254230499268
1667255122002341400,0.10834130859375,11.361122131347656,1.5984054803848267,3.335594654083252
1667255122004820500,0.110820556640625,11.46401309967041,1.5242279767990112,3.483949661254883
1667255122007299800,0.1132998046875,11.540583610534668,1.4213366508483887,3.641875982284546
1667255122009779200,0.115779296875,11.545369148254395,1.25144624710083,3.7256247997283936
1667255122012258300,0.11825830078125,11.49512004852295,1.0552347898483276,3.7950167655944824
1667255122014737700,0.120737548828125,11.394621849060059,0.851844847202301,3.81655216217041
1667255122017216800,0.123216796875,11.270195007324219,0.6460621356964111,3.8021950721740723
1667255122019696000,0.125696044921875,11.105090141296387,0.46420758962631226,3.78544545173645
1667255122022175500,0.128175537109375,10.899307250976562,0.31345975399017334,3.737588882446289
1667255122024654600,0.130654541015625,10.681560516357422,0.20099709928035736,3.696911096572876
1667255122027134000,0.133134033203125,10.387243270874023,0.11724831163883209,3.6610186100006104
1667255122029613000,0.135613037109375,10.092926025390625,0.04546362906694412,3.6538400650024414
1667255122032092400,0.138092529296875,9.834501266479492,0.019142581149935722,3.617947816848755
1667255122034571800,0.14057177734375,9.590433120727539,-0.009571290574967861,3.565305709838867
1667255122037051000,0.14305078125,9.343972206115723,-0.03349951654672623,3.4791641235351562
1667255122039530200,0.1455302734375,9.116654396057129,-0.019142581149935722,3.404986619949341
1667255122042009300,0.14800927734375,8.920442581176758,-0.08614161610603333,3.2542388439178467
1667255122044488700,0.15048876953125,8.757730484008789,-0.13878370821475983,3.0963125228881836
1667255122046968000,0.152968017578125,8.60459041595459,-0.16271193325519562,2.981456995010376
1667255122049447200,0.155447265625,8.46580696105957,-0.1579262912273407,2.9048867225646973
1667255122051926500,0.157926513671875,8.35573673248291,-0.09571290761232376,2.871387243270874
1667255122054405600,0.160405517578125,8.307880401611328,-0.04307080805301666,2.878565549850464
1667255122056885000,0.162885009765625,8.331808090209961,0.06699903309345245,2.8689942359924316
1667255122059364400,0.1653642578125,8.384450912475586,0.1746760457754135,2.871387243270874
1667255122061843500,0.167843505859375,8.461020469665527,0.2727817893028259,2.9288148880004883
1667255122064322800,0.17032275390625,8.492127418518066,0.380458801984787,3.046063184738159
1667255122066802200,0.17280224609375,8.508877754211426,0.4546363055706024,3.211168050765991
1667255122069281300,0.17528125,8.563912391662598,0.5383850932121277,3.352344512939453
1667255122071760600,0.1777607421875,8.647661209106445,0.6245267391204834,3.5150563716888428
1667255122074240000,0.180239990234375,8.745766639709473,0.7058826684951782,3.6849467754364014
1667255122076719000,0.182718994140625,8.8438720703125,0.8111668825149536,3.9074792861938477
1667255122079198500,0.185198486328125,8.975478172302246,0.8877372145652771,4.12761926651001
1667255122081677600,0.187677490234375,9.09272575378418,0.9403793215751648,4.338187217712402
1667255122084157000,0.190156982421875,9.214759826660156,0.97148597240448,4.541577339172363
1667255122086636300,0.19263623046875,9.298508644104004,0.9786644577980042,4.6995038986206055
1667255122089115400,0.195115478515625,9.384650230407715,0.9690931439399719,4.814359188079834
1667255122091594800,0.1975947265625,9.492327690124512,0.9451649188995361,4.874179840087891
1667255122094074000,0.20007421875,9.633503913879395,0.9068797826766968,4.941178798675537
1667255122096553200,0.20255322265625,9.80817985534668,0.8685946464538574,5.020142078399658
1667255122099032600,0.205032470703125,9.934999465942383,0.8662018179893494,5.06799840927124
1667255122101511700,0.20751171875,10.001998901367188,0.8542376756668091,5.089533805847168
1667255122103991000,0.209990966796875,10.006784439086914,0.8135597109794617,5.101497650146484
1667255122106470400,0.212470458984375,9.882357597351074,0.760917603969574,5.036891460418701
1667255122108949500,0.214949462890625,9.68375301361084,0.6484549641609192,4.9124650955200195
1667255122111428900,0.217428955078125,9.55214786529541,0.5312066078186035,4.72582483291626
1667255122113908000,0.219907958984375,9.540184020996094,0.39960137009620667,4.510470867156982
1667255122116387300,0.22238720703125,9.561718940734863,0.27756741642951965,4.302295207977295
1667255122118866700,0.22486669921875,9.528220176696777,0.18424734473228455,4.115654945373535
1667255122121345800,0.227345703125,9.449256896972656,0.11964113265275955,3.94815731048584
1667255122123825200,0.2298251953125,9.34875774383545,0.040677983313798904,3.8213376998901367
1667255122126304300,0.23230419921875,9.236295700073242,-0.02153540402650833,3.713660717010498
1667255122128783600,0.23478369140625,9.128618240356445,-0.09092725813388824,3.5820555686950684
1667255122131263000,0.237262939453125,9.020941734313965,-0.11485548317432404,3.5030922889709473
1667255122133742000,0.2397421875,8.913264274597168,-0.14835500717163086,3.4552359580993652
1667255122136221400,0.242221435546875,8.851051330566406,-0.14117653667926788,3.4408788681030273
1667255122138700500,0.244700439453125,8.784051895141602,-0.12442677468061447,3.414557933807373
1667255122141180000,0.247179931640625,8.757730484008789,-0.09810572862625122,3.436093330383301
1667255122143659300,0.2496591796875,8.740981101989746,-0.07178468257188797,3.4887354373931885
1667255122146138400,0.252138427734375,8.755337715148926,-0.035892341285943985,3.562912940979004
1667255122148617700,0.25461767578125,8.767302513122559,0.007178467698395252,3.672982692718506
1667255122151096800,0.257096923828125,8.760123252868652,0.01196411345154047,3.682554006576538
1667255122153576200,0.259576171875,8.784051895141602,0.02153540402650833,3.6227335929870605
1667255122156055600,0.2620556640625,8.879764556884766,0.05024927482008934,3.562912940979004
1667255122158534700,0.26453466796875,8.987442016601562,0.059820566326379776,3.5222349166870117
1667255122161014000,0.267013916015625,9.104690551757812,0.08374879509210587,3.483949661254883
1667255122163493400,0.269493408203125,9.221938133239746,0.10049854964017868,3.460021495819092
1667255122165972500,0.271972412109375,9.31047248840332,0.13639089465141296,3.4552359580993652
1667255122168451800,0.274451904296875,9.365508079528809,0.1746760457754135,3.462414264678955
1667255122170931000,0.276930908203125,9.410971641540527,0.1986042857170105,3.4743785858154297
1667255122173410300,0.279410400390625,9.399007797241211,0.27038896083831787,3.531806230545044
1667255122175889700,0.2818896484375,9.33440113067627,0.3206382393836975,3.627519130706787
1667255122178368800,0.28436865234375,9.260223388671875,0.4211367964744568,3.730410575866699
1667255122180848000,0.28684814453125,9.176474571228027,0.5144568681716919,3.81655216217041
1667255122183327500,0.289327392578125,9.080761909484863,0.6364908218383789,3.9074792861938477
1667255122185806600,0.291806640625,8.980263710021973,0.7250252366065979,3.9912281036376953
1667255122188286000,0.294285888671875,8.839086532592773,0.8255237936973572,4.015156269073486
1667255122190765300,0.296765380859375,8.693124771118164,0.8973084688186646,4.024727821350098
1667255122193244400,0.299244384765625,8.559126853942871,0.9355936646461487,4.043870449066162
1667255122195723800,0.301723876953125,8.449056625366211,0.9595218896865845,4.046263217926025
1667255122198203000,0.304202880859375,8.37966537475586,0.9834501147270203,4.048655986785889
1667255122200682200,0.30668212890625,8.310273170471191,1.0121639966964722,4.06540584564209
1667255122203161600,0.30916162109375,8.26241683959961,1.0839486122131348,4.106083869934082
1667255122205640700,0.311640625,8.25523853302002,1.1198409795761108,4.146761417388916
1667255122208120000,0.3141201171875,8.279166221618652,1.1748759746551514,4.185046672821045
1667255122210599200,0.31659912109375,8.319844245910645,1.2251251935958862,4.244867324829102
1667255122213078500,0.31907861328125,8.343772888183594,1.2634103298187256,4.3310089111328125
1667255122215558000,0.321557861328125,8.374878883361816,1.3040883541107178,4.409972190856934
1667255122218037000,0.324037109375,8.413164138793945,1.3519448041915894,4.4482574462890625
1667255122220516400,0.326516357421875,8.432307243347168,1.3902299404144287,4.491328239440918
1667255122222995500,0.328995361328125,8.439485549926758,1.3950155973434448,4.527220249176025
1667255122225474800,0.331474853515625,8.470592498779297,1.3830515146255493,4.54636287689209
1667255122227954200,0.3339541015625,8.504091262817383,1.3782658576965332,4.5583271980285645
1667255122230433300,0.336433349609375,8.549555778503418,1.3710874319076538,4.541577339172363
1667255122232912600,0.33891259765625,8.563912391662598,1.3495519161224365,4.512863636016846
1667255122235392000,0.34139208984375,8.575876235961914,1.2945170402526855,4.474578380584717
1667255122237871000,0.34387109375,8.623732566833496,1.2299108505249023,4.419543266296387
1667255122240350500,0.3463505859375,8.693124771118164,1.1389836072921753,4.3310089111328125
1667255122242829600,0.34882958984375,8.764909744262695,1.0480563640594482,4.254438877105713
1667255122245309000,0.351308837890625,8.819944381713867,0.9499505758285522,4.194618225097656
1667255122247788300,0.353788330078125,8.874979019165039,0.8709874153137207,4.156332969665527
1667255122250267400,0.356267333984375,8.894122123718262,0.7800601720809937,4.108476638793945
1667255122252746800,0.358746826171875,8.918049812316895,0.7154539823532104,4.063013076782227
1667255122255225900,0.361225830078125,8.956335067749023,0.6795616149902344,4.027120590209961
1667255122257705200,0.363705322265625,8.997013092041016,0.6436693072319031,3.988835334777832
1667255122260184600,0.3661845703125,9.044869422912598,0.6029912829399109,3.9457645416259766
1667255122262663700,0.36866357421875,9.080761909484863,0.5670989751815796,3.902693748474121
1667255122265143000,0.37114306640625,9.111868858337402,0.5359922647476196,3.9074792861938477
1667255122267622100,0.3736220703125,9.176474571228027,0.5072783827781677,3.862015724182129
1667255122270101500,0.3761015625,9.238688468933105,0.4570291340351105,3.814159393310547
1667255122272580900,0.378580810546875,9.284152030944824,0.4259224236011505,3.7806596755981445
1667255122275060000,0.38106005859375,9.336793899536133,0.39481574296951294,3.761517286300659
1667255122277539300,0.383539306640625,9.403793334960938,0.35892340540885925,3.792623996734619
1667255122280018700,0.386018798828125,9.494720458984375,0.31345975399017334,3.8356947898864746
1667255122282497800,0.388497802734375,9.554540634155273,0.30628129839897156,3.8739798069000244
1667255122284977200,0.39097705078125,9.58325481414795,0.2871387302875519,3.9194436073303223
1667255122287456300,0.393456298828125,9.607182502746582,0.2727817893028259,3.926621913909912
1667255122289935600,0.395935546875,9.623932838439941,0.2632105052471161,3.9050865173339844
1667255122292415000,0.3984150390625,9.640682220458984,0.23449662327766418,3.8500516414642334
1667255122294894000,0.40089404296875,9.695717811584473,0.2225325107574463,3.814159393310547
1667255122297373400,0.40337353515625,9.762716293334961,0.21296121180057526,3.7734813690185547
1667255122299852800,0.405852783203125,9.820143699645996,0.21296121180057526,3.730410575866699
1667255122302332000,0.408331787109375,9.839286804199219,0.18424734473228455,3.7328033447265625
1667255122304811300,0.410811279296875,9.832108497619629,0.1459621787071228,3.735196113586426
1667255122307290400,0.413290283203125,9.80817985534668,0.12921242415905,3.7232320308685303
1667255122309769700,0.415769775390625,9.762716293334961,0.13639089465141296,3.6681971549987793
1667255122312249000,0.4182490234375,9.7005033493042,0.13878370821475983,3.6155550479888916
1667255122314728200,0.420728271484375,9.635896682739258,0.15074782073497772,3.586841106414795
1667255122317207600,0.42320751953125,9.547362327575684,0.1459621787071228,3.594019651412964
1667255122319687000,0.42568701171875,9.497113227844238,0.14835500717163086,3.6394832134246826
1667255122322166000,0.428166015625,9.492327690124512,0.1579262912273407,3.656233072280884
1667255122324645400,0.430645263671875,9.513862609863281,0.18424734473228455,3.665804386138916
1667255122327124500,0.43312451171875,9.53779125213623,0.2153540402650833,3.744767427444458
1667255122329603800,0.435603759765625,9.56889820098877,0.2392822653055191,3.8811583518981934
1667255122332083200,0.438083251953125,9.578469276428223,0.2919243574142456,4.034298896789551
1667255122334562300,0.440562255859375,9.561718940734863,0.37088751792907715,4.211368083953857
1667255122337041700,0.443041748046875,9.571290969848633,0.4378865361213684,4.402793884277344
1667255122339520800,0.445520751953125,9.595218658447266,0.5120640397071838,4.60139799118042
1667255122342000000,0.448000244140625,9.68375301361084,0.6101697683334351,4.780859470367432
1667255122344479500,0.4504794921875,9.805787086486816,0.7010970115661621,4.934000492095947
1667255122346958600,0.45295849609375,9.91825008392334,0.7848458290100098,5.077569484710693
1667255122349438000,0.45543798828125,10.01874828338623,0.9068797826766968,5.178068161010742
1667255122351917000,0.4579169921875,10.112068176269531,1.0217353105545044,5.223531723022461
1667255122354396400,0.460396484375,10.176674842834473,1.1341979503631592,5.216353416442871
1667255122356875800,0.462875732421875,10.217352867126465,1.2394821643829346,5.2115678787231445
1667255122359355000,0.46535498046875,10.255638122558594,1.3495519161224365,5.144568920135498
1667255122361834200,0.467834228515625,10.308279991149902,1.4189438819885254,5.108676433563232
1667255122364313300,0.470313232421875,10.37767219543457,1.459621787071228,5.058426856994629
1667255122366792700,0.472792724609375,10.415956497192383,1.454836130142212,5.010570526123047
1667255122369272000,0.47527197265625,10.430314064025879,1.4261223077774048,4.965106964111328
1667255122371751200,0.477751220703125,10.394421577453613,1.3399807214736938,4.914857864379883
1667255122374230500,0.48023046875,10.329814910888672,1.2011969089508057,4.862215518951416
1667255122376710000,0.4827099609375,10.255638122558594,1.0432707071304321,4.804787635803223
1667255122379189000,0.48518896484375,10.147960662841797,0.8949156403541565,4.7401814460754395
1667255122381668400,0.48766845703125,10.040284156799316,0.7441678643226624,4.656432628631592
1667255122384147500,0.4901474609375,9.970891952514648,0.6029912829399109,4.572684288024902
1667255122386626800,0.492626708984375,9.951749801635742,0.48813581466674805,4.479363918304443
1667255122389106200,0.495106201171875,9.997213363647461,0.363709032535553,4.381258487701416
1667255122391585300,0.497585205078125,10.066604614257812,0.2584248483181,4.309473514556885
1667255122394064600,0.500064697265625,10.133604049682617,0.19621145725250244,4.311866283416748
1667255122396544000,0.5025439453125,10.179067611694336,0.12203395366668701,4.287938117980957
1667255122399023000,0.505023193359375,10.191031455993652,0.09810572862625122,4.271188259124756
1667255122401502500,0.50750244140625,10.195816993713379,0.064606212079525,4.261617183685303
1667255122403981600,0.509981689453125,10.195816993713379,0.040677983313798904,4.242474555969238
1667255122406461000,0.5124609375,10.186245918273926,0.02153540402650833,4.2281174659729
1667255122408940300,0.514940185546875,10.14317512512207,0,4.2209391593933105
1667255122411419400,0.51741943359375,10.085747718811035,-0.02871387079358101,4.240081787109375
1667255122413898800,0.519898681640625,10.03310489654541,-0.03349951654672623,4.256831645965576
1667255122416378000,0.522378173828125,9.994820594787598,-0.05742774158716202,4.266402721405029
1667255122418857200,0.524857177734375,9.970891952514648,-0.06699903309345245,4.299902439117432
1667255122421336600,0.527336669921875,9.937392234802246,-0.06939185410737991,4.338187217712402
1667255122423815700,0.529815673828125,9.90149974822998,-0.08614161610603333,4.371686935424805
1667255122426295000,0.532294921875,9.829715728759766,-0.10049854964017868,4.393222332000732
1667255122428774400,0.5347744140625,9.743574142456055,-0.0933200865983963,4.402793884277344
1667255122431253500,0.53725341796875,9.647860527038574,-0.08853443711996078,4.395615100860596
1667255122433732900,0.53973291015625,9.53061294555664,-0.08374879509210587,4.383651256561279
1667255122436212000,0.5422119140625,9.403793334960938,-0.07178468257188797,4.371686935424805
1667255122438691300,0.54469140625,9.267401695251465,-0.019142581149935722,4.3788652420043945
1667255122441170700,0.547170654296875,9.121439933776855,0.02153540402650833,4.42193603515625
1667255122443649800,0.54964990234375,8.949156761169434,0.06699903309345245,4.445864677429199
1667255122446129200,0.552129150390625,8.772088050842285,0.11246266216039658,4.508078098297119
1667255122448608300,0.554608154296875,8.590232849121094,0.13639089465141296,4.54636287689209
1667255122451087600,0.557087646484375,8.417949676513672,0.15314064919948578,4.572684288024902
1667255122453567000,0.55956689453125,8.250452041625977,0.15553347766399384,4.59421968460083
1667255122456046000,0.562046142578125,8.10688304901123,0.10767702013254166,4.54636287689209
1667255122458525400,0.564525390625,7.939385414123535,0.04785645380616188,4.488935470581055
1667255122461004500,0.567004638671875,7.752745151519775,-0.02153540402650833,4.443471431732178
1667255122463484000,0.56948388671875,7.573283672332764,-0.07417750358581543,4.426722049713135
1667255122465963300,0.57196337890625,7.405786037445068,-0.11006984114646912,4.393222332000732
1667255122468442400,0.5744423828125,7.295716285705566,-0.16510476171970367,4.393222332000732
1667255122470921700,0.576921630859375,7.223931789398193,-0.20099709928035736,4.4482574462890625
1667255122473401000,0.579401123046875,7.178467750549316,-0.24885354936122894,4.481756687164307
1667255122475880200,0.581880126953125,7.219145774841309,-0.3206382393836975,4.505684852600098
1667255122478359600,0.584359619140625,7.278966426849365,-0.35892340540885925,4.529613494873047
1667255122480838700,0.586838623046875,7.326822757720947,-0.3900300860404968,4.60857629776001
1667255122483318000,0.589318115234375,7.424928665161133,-0.4139583110809326,4.651647090911865
1667255122485797400,0.59179736328125,7.513463020324707,-0.4211367964744568,4.744967460632324
1667255122488276500,0.5942763671875,7.609176158905029,-0.4091726839542389,4.811966419219971
1667255122490755800,0.596755859375,7.70249605178833,-0.380458801984787,4.893322467803955
1667255122493235200,0.599235107421875,7.814958572387695,-0.3326023519039154,4.981856822967529
1667255122495714300,0.60171435546875,7.908278942108154,-0.27756741642951965,5.087141036987305
1667255122498193700,0.604193603515625,7.989634990692139,-0.23688943684101105,5.19242525100708
1667255122500672800,0.6066728515625,8.078168869018555,-0.1746760457754135,5.290530681610107
1667255122503152000,0.609152099609375,8.166703224182129,-0.08135596662759781,5.319244861602783
1667255122505631500,0.611631591796875,8.252845764160156,-0.009571290574967861,5.376672267913818
1667255122508110600,0.614110595703125,8.322237014770508,0.035892341285943985,5.4173502922058105
1667255122510590000,0.61658984375,8.37727165222168,0.07657032459974289,5.472385406494141
1667255122513069300,0.6190693359375,8.449056625366211,0.08614161610603333,5.527420520782471
1667255122515548400,0.62154833984375,8.559126853942871,0.1579262912273407,5.627918720245361
1667255122518027800,0.62402783203125,8.693124771118164,0.2153540402650833,5.79780912399292
1667255122520507000,0.6265068359375,8.83669376373291,0.26081767678260803,6.001199245452881
1667255122522986200,0.628986328125,8.925228118896484,0.28235307335853577,6.113661766052246
1667255122525465600,0.631465576171875,8.987442016601562,0.28235307335853577,6.16391134262085
1667255122527944700,0.63394482421875,9.004191398620605,0.2679961323738098,6.25723123550415
1667255122530424000,0.636424072265625,9.006584167480469,0.23449662327766418,6.393621921539307
1667255122532903200,0.638903076171875,9.030512809753418,0.18903298676013947,6.50608491897583
1667255122535382500,0.641382568359375,9.044869422912598,0.16749759018421173,6.599404811859131
1667255122537862000,0.64386181640625,9.049654960632324,0.17706887423992157,6.714260101318359
1667255122540341000,0.646341064453125,9.025727272033691,0.1818545162677765,6.836294174194336
1667255122542820400,0.6488203125,9.020941734313965,0.18424734473228455,6.922435760498047
1667255122545299500,0.651299560546875,9.044869422912598,0.13160525262355804,6.965506553649902
1667255122547778800,0.65377880859375,9.040083885192871,0.08374879509210587,6.943971157073975
1667255122550258200,0.656258056640625,9.023334503173828,0.02153540402650833,6.991827964782715
1667255122552737300,0.6587373046875,8.980263710021973,-0.02392822690308094,7.044469833374023
1667255122555216600,0.661216552734375,8.956335067749023,-0.10289137065410614,6.999006271362305
1667255122557695700,0.66369580078125,8.934800148010254,-0.22492532432079315,6.912864685058594
1667255122560175000,0.666175048828125,8.898907661437988,-0.32542386651039124,6.850651264190674
1667255122562654500,0.668654541015625,8.872586250305176,-0.46420758962631226,6.7070817947387695
1667255122565133600,0.671133544921875,8.879764556884766,-0.6436693072319031,6.496513366699219
1667255122567613000,0.673613037109375,8.874979019165039,-0.8422735929489136,6.31944465637207
1667255122570092300,0.67609228515625,8.863015174865723,-1.1054840087890625,6.125626087188721
1667255122572571400,0.6785712890625,8.796015739440918,-1.4476577043533325,5.888736724853516
1667255122575050800,0.68105078125,8.69791030883789,-1.679761528968811,5.72123908996582
1667255122577529900,0.68352978515625,8.638090133666992,-1.7156537771224976,5.599205017089844
1667255122580009200,0.68600927734375,8.640482902526855,-1.8185452222824097,5.501099109649658
1667255122582488600,0.688488525390625,8.714659690856934,-1.9956140518188477,5.333601474761963
1667255122584967700,0.6909677734375,8.72901725769043,-2.0554347038269043,5.182853698730469
1667255122587447000,0.693447021484375,8.726624488830566,-2.1128623485565186,5.024927616119385
1667255122589926400,0.695926513671875,8.681160926818848,-2.2396819591522217,4.869394302368164
1667255122592405500,0.698405517578125,8.678768157958984,-2.3330020904541016,4.735395908355713
1667255122594884900,0.700884765625,8.623732566833496,-2.423929452896118,4.577469825744629
1667255122597364000,0.703364013671875,8.544769287109375,-2.5052852630615234,4.460221290588379
1667255122599843300,0.70584326171875,8.48734188079834,-2.4909284114837646,4.481756687164307
1667255122602322700,0.70832275390625,8.461020469665527,-2.53399920463562,4.419543266296387
1667255122604801800,0.7108017578125,8.37727165222168,-2.5124638080596924,4.3549370765686035
1667255122607281200,0.71328125,8.295916557312012,-2.486142635345459,4.2592244148254395
1667255122609760500,0.715760498046875,8.248059272766113,-2.4885356426239014,4.1970109939575195
1667255122612239600,0.718239501953125,8.221738815307617,-2.4191436767578125,4.161118507385254
1667255122614719000,0.720718994140625,8.181060791015625,-2.3712873458862305,4.208974838256836
1667255122617198000,0.723197998046875,8.171489715576172,-2.313859462738037,4.295116424560547
1667255122619677400,0.725677490234375,8.154739379882812,-2.2085752487182617,4.347758769989014
1667255122622156800,0.72815673828125,8.178668022155762,-2.117648124694824,4.4243292808532715
1667255122624636000,0.730635986328125,8.226524353027344,-2.0578274726867676,4.479363918304443
1667255122627115300,0.733115234375,8.279166221618652,-1.9908283948898315,4.551148891448975
1667255122629594400,0.735594482421875,8.298309326171875,-1.9645073413848877,4.579862594604492
1667255122632073700,0.73807373046875,8.319844245910645,-1.8903298377990723,4.677968502044678
1667255122634553000,0.740552978515625,8.358129501342773,-1.8735800981521606,4.711467742919922
1667255122637032200,0.7430322265625,8.353343963623047,-1.8496519327163696,4.6995038986206055
1667255122639511600,0.745511474609375,8.413164138793945,-1.770688772201538,4.8191447257995605
1667255122641991000,0.747990966796875,8.432307243347168,-1.7611174583435059,4.867001056671143
1667255122644470000,0.750469970703125,8.374878883361816,-1.7850457429885864,4.9124650955200195
1667255122646949400,0.752949462890625,8.293522834777832,-1.820937991142273,5.017749309539795
1667255122649428500,0.755428466796875,8.149953842163086,-1.8161523342132568,5.0943193435668945
1667255122651907800,0.757907958984375,8.233702659606934,-1.7563318014144897,5.2283172607421875
1667255122654387200,0.76038720703125,8.291130065917969,-1.703689694404602,5.264209747314453
1667255122656866300,0.7628662109375,8.295916557312012,-1.6701902151107788,5.314459323883057
1667255122659345700,0.765345703125,8.343772888183594,-1.6151553392410278,5.328815937042236
1667255122661824800,0.76782470703125,8.439485549926758,-1.5792629718780518,5.391029357910156
1667255122664304000,0.77030419921875,8.563912391662598,-1.5481562614440918,5.3934221267700195
1667255122666783500,0.772783447265625,8.676374435424805,-1.545763373374939,5.436492919921875
1667255122669262600,0.7752626953125,8.800801277160645,-1.5337992906570435,5.477170944213867
1667255122671742000,0.777741943359375,8.920442581176758,-1.5170495510101318,5.553741455078125
1667255122674221000,0.780220947265625,9.016156196594238,-1.5290136337280273,5.594419479370117
1667255122676700400,0.782700439453125,9.047262191772461,-1.5553346872329712,5.61116886138916
1667255122679179800,0.7851796875,9.09272575378418,-1.6031911373138428,5.627918720245361
1667255122681659000,0.787658935546875,9.097511291503906,-1.6295121908187866,5.639883041381836
1667255122684138200,0.79013818359375,9.119047164916992,-1.674975872039795,5.6590256690979
1667255122686617600,0.79261767578125,9.150154113769531,-1.7084753513336182,5.697310924530029
1667255122689096700,0.7950966796875,9.07119083404541,-1.7635103464126587,5.726024627685547
1667255122691576000,0.797576171875,8.989834785461426,-1.8448662757873535,5.769095420837402
1667255122694055200,0.80005517578125,9.011369705200195,-1.9286150932312012,5.836094379425049
1667255122696534500,0.802534423828125,9.030512809753418,-2.0171494483947754,5.917450428009033
1667255122699014000,0.805013916015625,9.056833267211914,-2.0673987865448,5.989234924316406
1667255122701493000,0.807492919921875,9.186046600341797,-2.1128623485565186,6.089733600616455
1667255122703972400,0.809972412109375,9.257830619812012,-2.155933141708374,6.206982135772705
1667255122706451700,0.81245166015625,9.31047248840332,-2.1343977451324463,6.307480335235596
1667255122708930800,0.814930908203125,9.391828536987305,-2.122433662414551,6.448657035827637
1667255122711410200,0.81741015625,9.468399047851562,-2.0961127281188965,6.608976364135742
1667255122713889300,0.81988916015625,9.533005714416504,-2.0745773315429688,6.807580471038818
1667255122716368600,0.82236865234375,9.631111145019531,-2.007578134536743,7.0061845779418945
1667255122718848000,0.824847900390625,9.734002113342285,-1.9573289155960083,7.197610378265381
1667255122721327000,0.8273271484375,9.844072341918945,-1.911865234375,7.350750923156738
1667255122723806500,0.829806396484375,9.884750366210938,-1.856830358505249,7.5086774826049805
1667255122726285800,0.832285888671875,9.920642852783203,-1.8065811395645142,7.652246952056885
1667255122728765000,0.834764892578125,9.963713645935059,-1.7635103464126587,7.795815944671631
1667255122731244300,0.837244384765625,9.978070259094238,-1.7778671979904175,7.920242786407471
1667255122733723400,0.839723388671875,9.970891952514648,-1.7922241687774658,8.003992080688477
1667255122736202800,0.84220263671875,9.958928108215332,-1.7922241687774658,8.078168869018555
1667255122738682000,0.84468212890625,9.90149974822998,-1.7850457429885864,8.123632431030273
1667255122741161200,0.8471611328125,9.798608779907227,-1.797009825706482,8.195417404174805
1667255122743640600,0.849640625,9.667003631591797,-1.8376877307891846,8.23848819732666
1667255122746119700,0.85211962890625,9.53061294555664,-1.8496519327163696,8.267202377319336
1667255122748599000,0.85459912109375,9.401400566101074,-1.8687944412231445,8.240880966186523
1667255122751078400,0.857078369140625,9.308079719543457,-1.9094724655151367,8.195417404174805
1667255122753557500,0.8595576171875,9.245866775512695,-1.9597218036651611,8.15234661102295
1667255122756036900,0.862036865234375,9.207581520080566,-2.038684844970703,8.118846893310547
1667255122758516000,0.864515869140625,9.140582084655762,-2.091326951980591,8.061419486999512
1667255122760995300,0.866995361328125,9.056833267211914,-2.148754835128784,8.01356315612793
1667255122763474700,0.869474609375,8.96829891204834,-2.218146562576294,7.968099594116211
1667255122765953800,0.871953857421875,8.896514892578125,-2.2540390491485596,7.929814338684082
1667255122768433200,0.87443310546875,8.81515884399414,-2.2755744457244873,7.88913631439209
1667255122770912500,0.87691259765625,8.69791030883789,-2.2683959007263184,7.848458290100098
1667255122773391600,0.8793916015625,8.559126853942871,-2.280359983444214,7.802994728088379
1667255122775871000,0.88187109375,8.403593063354492,-2.2683959007263184,7.76470947265625
1667255122778350000,0.88435009765625,8.257631301879883,-2.249253273010254,7.731209754943848
1667255122780829400,0.886829345703125,8.118846893310547,-2.249253273010254,7.683353424072266
1667255122783308800,0.889308837890625,8.001599311828613,-2.218146562576294,7.623532772064209
1667255122785788000,0.891787841796875,7.89631462097168,-2.2061824798583984,7.554141044616699
1667255122788267300,0.894267333984375,7.793423175811768,-2.1894326210021973,7.45364236831665
1667255122790746400,0.896746337890625,7.683353424072266,-2.1750757694244385,7.3746795654296875
1667255122793225700,0.899225830078125,7.5565338134765625,-2.1750757694244385,7.288537979125977
1667255122795705000,0.901705078125,7.4225358963012695,-2.1750757694244385,7.200003147125244
1667255122798184200,0.90418408203125,7.271788120269775,-2.194218397140503,7.1162543296813965
1667255122800663600,0.90666357421875,7.094718933105469,-2.210968017578125,7.037291526794434
1667255122803143000,0.909142822265625,6.927221775054932,-2.2205393314361572,6.960721015930176
1667255122805622000,0.9116220703125,6.764509677886963,-2.266003131866455,6.869793891906738
1667255122808101400,0.914101318359375,6.606583118438721,-2.3330020904541016,6.807580471038818
1667255122810580500,0.91658056640625,6.4510498046875,-2.4047868251800537,6.728617191314697
1667255122813059800,0.919059814453125,6.329015731811523,-2.4741785526275635,6.668796539306641
1667255122815539200,0.921539306640625,6.1950178146362305,-2.531606435775757,6.616154670715332
1667255122818018300,0.924018310546875,6.113661766052246,-2.581855535507202,6.558726787567139
1667255122820497700,0.92649755859375,6.058627128601074,-2.581855535507202,6.532405853271484
1667255122822977000,0.92897705078125,6.034698486328125,-2.5842485427856445,6.51326322555542
1667255122825456000,0.9314560546875,6.013163089752197,-2.5435705184936523,6.5419769287109375
1667255122827935500,0.933935546875,6.022734642028809,-2.486142635345459,6.546762943267822
1667255122830414600,0.93641455078125,6.020341873168945,-2.3952155113220215,6.537191390991211
1667255122832894000,0.93889404296875,6.008377552032471,-2.2779672145843506,6.515655994415283
1667255122835373300,0.941373291015625,6.0370917320251465,-2.148754835128784,6.498906135559082
1667255122837852400,0.943852294921875,6.068198204040527,-2.0243279933929443,6.51326322555542
1667255122840331800,0.946331787109375,6.089733600616455,-1.9262222051620483,6.539584159851074
1667255122842811100,0.94881103515625,6.1328043937683105,-1.8400806188583374,6.565905570983887
1667255122845290200,0.951290283203125,6.166304111480713,-1.7874385118484497,6.616154670715332
1667255122847769600,0.95376953125,6.144768714904785,-1.7635103464126587,6.640082836151123
1667255122850248700,0.956248779296875,6.151947021484375,-1.7563318014144897,6.6592254638671875
1667255122852728000,0.95872802734375,6.192625045776367,-1.7874385118484497,6.6592254638671875
1667255122855207400,0.96120751953125,6.259624004364014,-1.8113667964935303,6.6352972984313965
1667255122857686500,0.9636865234375,6.329015731811523,-1.8089739084243774,6.601797580718994
1667255122860166000,0.966165771484375,6.374479293823242,-1.8185452222824097,6.534798622131348
1667255122862645000,0.96864501953125,6.460621356964111,-1.8233308792114258,6.491727828979492
1667255122865124400,0.971124267578125,6.544369697570801,-1.8400806188583374,6.427121639251709
1667255122867603700,0.973603759765625,6.616154670715332,-1.828116536140442,6.367300987243652
1667255122870082800,0.976082763671875,6.685546398162842,-1.8137595653533936,6.295516490936279
1667255122872562200,0.978562255859375,6.764509677886963,-1.7754744291305542,6.247660160064697
1667255122875041300,0.981041259765625,6.826723098754883,-1.7395820617675781,6.211767673492432
1667255122877520600,0.983520751953125,6.891329288482666,-1.6845471858978271,6.161518096923828
1667255122880000000,0.986,6.953542709350586,-1.6319050788879395,6.096911907196045
1667255122882479000,0.98847900390625,7.037291526794434,-1.5936198234558105,6.0466628074646
1667255122884958500,0.99095849609375,7.11146879196167,-1.557727575302124,6.022734642028809
1667255122887437800,0.993437744140625,7.178467750549316,-1.5385849475860596,5.98444938659668
1667255122889917000,0.9959169921875,7.262216567993164,-1.5385849475860596,6.015556335449219
1667255122892396300,0.998396240234375,7.345965385437012,-1.5098711252212524,6.089733600616455
1667255122894875400,1.00087548828125,7.3746795654296875,-1.4380863904953003,6.149554252624512
1667255122897354800,1.003354736328125,7.369893550872803,-1.3806586265563965,6.20219612121582
1667255122899834000,1.005834228515625,7.350750923156738,-1.3280165195465088,6.2668023109436035
1667255122902313200,1.008313232421875,7.319644451141357,-1.2897313833236694,6.31944465637207
1667255122904792600,1.01079248046875,7.278966426849365,-1.2323036193847656,6.367300987243652
1667255122907271700,1.013271728515625,7.255038261413574,-1.1772687435150146,6.398407936096191
1667255122909751000,1.0157509765625,7.247859954833984,-1.1198409795761108,6.441478729248047
1667255122912230400,1.01823046875,7.226324558258057,-1.0504491329193115,6.45822811126709
1667255122914709500,1.02070947265625,7.190432071685791,-1.00259268283844,6.4701924324035645
1667255122917188900,1.02318896484375,7.16650390625,-0.9619147181510925,6.479763507843018
1667255122919668200,1.025668212890625,7.109076023101807,-0.9571290612220764,6.467799663543701
1667255122922147300,1.028147216796875,7.032505512237549,-0.9595218896865845,6.427121639251709
1667255122924626700,1.030626708984375,6.953542709350586,-0.9834501147270203,6.38883638381958
1667255122927105800,1.033105712890625,6.876972198486328,-1.0169496536254883,6.3361945152282715
1667255122929585200,1.035585205078125,6.807580471038818,-1.0480563640594482,6.283552169799805
1667255122932064500,1.038064453125,6.764509677886963,-1.0791629552841187,6.216553211212158
1667255122934543600,1.040543701171875,6.711867332458496,-1.1222338676452637,6.180660724639893
1667255122937023000,1.04302294921875,6.64486837387085,-1.1485549211502075,6.147161483764648
1667255122939502300,1.04550244140625,6.613761901855469,-1.1653046607971191,6.116054534912109
1667255122941981400,1.0479814453125,6.585047721862793,-1.210768222808838,6.051448345184326
1667255122944460800,1.050460693359375,6.556334018707275,-1.2538390159606934,5.994020938873291
1667255122946940000,1.05293994140625,6.5252275466918945,-1.2945170402526855,5.936593055725098
1667255122949419300,1.055419189453125,6.434299945831299,-1.3471591472625732,5.876772403717041
1667255122951898600,1.057898681640625,6.297909259796143,-1.404586911201477,5.843272686004639
1667255122954377700,1.060377685546875,6.187839508056641,-1.459621787071228,5.804987907409668
1667255122956857000,1.062857177734375,6.104090690612793,-1.5026925802230835,5.781059741973877
1667255122959336400,1.06533642578125,6.058627128601074,-1.5146567821502686,5.776273727416992
1667255122961815600,1.067815673828125,6.072983741760254,-1.4835500717163086,5.824130535125732
1667255122964295000,1.070294921875,6.120840549468994,-1.430907964706421,5.893522262573242
1667255122966774000,1.07277392578125,6.1950178146362305,-1.3663017749786377,5.98444938659668
1667255122969253400,1.07525341796875,6.288337707519531,-1.2849457263946533,6.1088762283325195
1667255122971732700,1.077732666015625,6.3840508460998535,-1.184447169303894,6.273981094360352
1667255122974211800,1.0802119140625,6.52044153213501,-1.1437692642211914,6.441478729248047
1667255122976691200,1.082691162109375,6.6831536293029785,-1.1174482107162476,6.563512325286865
1667255122979170300,1.08517041015625,6.86261510848999,-1.1341979503631592,6.656832695007324
1667255122981649700,1.087649658203125,7.04925537109375,-1.1820544004440308,6.733402729034424
1667255122984129000,1.09012890625,7.2335028648376465,-1.2658032178878784,6.790830612182617
1667255122986608000,1.092608154296875,7.365108013153076,-1.3591232299804688,6.7932233810424805
1667255122989087500,1.09508740234375,7.487142086029053,-1.4333007335662842,6.766902446746826
1667255122991566800,1.09756689453125,7.582854747772217,-1.4811571836471558,6.719046115875244
1667255122994046000,1.1000458984375,7.690532207489014,-1.5026925802230835,6.678368091583252
1667255122996525300,1.102525390625,7.791030406951904,-1.5290136337280273,6.632904529571533
1667255122999004400,1.10500439453125,7.922635555267334,-1.545763373374939,6.63051176071167
1667255123001483800,1.10748388671875,8.054241180419922,-1.557727575302124,6.620940208435059
1667255123003963100,1.109963134765625,8.157132148742676,-1.5696916580200195,6.620940208435059
1667255123006442200,1.112442138671875,8.23848819732666,-1.5625132322311401,6.613761901855469
1667255123008921600,1.114921630859375,8.322237014770508,-1.5840486288070679,6.628118515014648
1667255123011400700,1.117400634765625,8.403593063354492,-1.6175481081008911,6.618547439575195
1667255123013880000,1.119880126953125,8.449056625366211,-1.6630117893218994,6.642475605010986
1667255123016359400,1.122359375,8.453842163085938,-1.679761528968811,6.680760860443115
1667255123018838500,1.124838623046875,8.422736167907715,-1.679761528968811,6.692724704742432
1667255123021318000,1.12731787109375,8.389236450195312,-1.667797327041626,6.714260101318359
1667255123023797000,1.129796875,8.319844245910645,-1.6151553392410278,6.711867332458496
1667255123026276400,1.1322763671875,8.236095428466797,-1.5481562614440918,6.733402729034424
1667255123028755700,1.134755615234375,8.14516830444336,-1.5481562614440918,6.757331371307373
1667255123031234800,1.13723486328125,8.066205024719238,-1.545763373374939,6.821937561035156
1667255123033714200,1.139714111328125,7.980063438415527,-1.5433706045150757,6.857829570770264
1667255123036193500,1.142193603515625,7.893921852111816,-1.5314065217971802,6.896114826202393
1667255123038672600,1.144672607421875,7.791030406951904,-1.5146567821502686,6.920042991638184
1667255123041152000,1.147152099609375,7.652246952056885,-1.454836130142212,6.939185619354248
1667255123043631000,1.149631103515625,7.489534854888916,-1.404586911201477,6.97268533706665
1667255123046110500,1.1521103515625,7.331608772277832,-1.34476637840271,7.0061845779418945
1667255123048589800,1.15458984375,7.183253765106201,-1.2921242713928223,7.051648139953613
1667255123051069000,1.15706884765625,7.0301127433776855,-1.2586246728897095,7.080362319946289
1667255123053548300,1.15954833984375,6.874579429626465,-1.222732424736023,7.089933395385742
1667255123056027600,1.162027587890625,6.711867332458496,-1.210768222808838,7.113861560821533
1667255123058506800,1.1645068359375,6.556334018707275,-1.2083754539489746,7.118647575378418
1667255123060986000,1.166986083984375,6.410371780395508,-1.1820544004440308,7.137789726257324
1667255123063465200,1.16946533203125,6.2668023109436035,-1.1365907192230225,7.161718368530273
1667255123065944600,1.171944580078125,6.147161483764648,-1.0360921621322632,7.176074981689453
1667255123068424000,1.174423828125,6.072983741760254,-0.9499505758285522,7.18086051940918
1667255123070903000,1.176903076171875,6.020341873168945,-0.8709874153137207,7.164111137390137
1667255123073382400,1.17938232421875,5.972485542297363,-0.8374879360198975,7.161718368530273
1667255123075861800,1.18186181640625,5.9437713623046875,-0.7992027401924133,7.176074981689453
1667255123078340900,1.1843408203125,5.92223596572876,-0.7992027401924133,7.197610378265381
1667255123080820200,1.1868203125,5.910272121429443,-0.8111668825149536,7.202396392822266
1667255123083299300,1.18929931640625,5.903093338012695,-0.8350951075553894,7.207181930541992
1667255123085778700,1.19177880859375,5.903093338012695,-0.8542376756668091,7.1856465339660645
1667255123088258000,1.194258056640625,5.850451469421387,-0.8685946464538574,7.133004188537598
1667255123090737200,1.196737060546875,5.7786664962768555,-0.916451096534729,7.044469833374023
1667255123093216500,1.199216552734375,5.711667537689209,-0.9667003750801086,6.948757171630859
1667255123095696000,1.20169580078125,5.625525951385498,-1.0169496536254883,6.838686943054199
1667255123098175000,1.204175048828125,5.532206058502197,-1.0552347898483276,6.7621169090271
1667255123100654300,1.206654296875,5.438885688781738,-1.1030912399291992,6.704689025878906
1667255123103133400,1.209133544921875,5.3312087059021,-1.153340458869934,6.640082836151123
1667255123105612800,1.21161279296875,5.201996326446533,-1.191625714302063,6.649653911590576
1667255123108092200,1.214092041015625,5.07517671585083,-1.2346965074539185,6.666403770446777
1667255123110571300,1.2165712890625,4.941178798675537,-1.2873386144638062,6.654439926147461
1667255123113050600,1.219050537109375,4.840680122375488,-1.306481122970581,6.661618232727051
1667255123115529700,1.22152978515625,4.790431022644043,-1.306481122970581,6.668796539306641
1667255123118009000,1.224009033203125,4.737788677215576,-1.275374412536621,6.652047157287598
1667255123120488400,1.226488525390625,4.6995038986206055,-1.215553879737854,6.685546398162842
1667255123122967600,1.228967529296875,4.675575256347656,-1.1270195245742798,6.7310099601745605
1667255123125447000,1.231447021484375,4.658825874328613,-1.0169496536254883,6.798008918762207
1667255123127926300,1.23392626953125,4.6540398597717285,-0.9044869542121887,6.869793891906738
1667255123130405400,1.2364052734375,4.689932346343994,-0.7824530005455017,6.97268533706665
1667255123132884700,1.238884765625,4.713860511779785,-0.6556333899497986,7.082755088806152
1667255123135363800,1.24136376953125,4.737788677215576,-0.5288137793540955,7.183253765106201
1667255123137843200,1.24384326171875,4.764110088348389,-0.4259224236011505,7.271788120269775
1667255123140322600,1.246322509765625,4.797609329223633,-0.30149564146995544,7.350750923156738
1667255123142801700,1.2488017578125,4.792823791503906,-0.1986042857170105,7.432106971740723
1667255123145281000,1.251281005859375,4.713860511779785,-0.1052841991186142,7.527820110321045
1667255123147760000,1.253760009765625,4.642076015472412,-0.035892341285943985,7.613961696624756
1667255123150239500,1.256239501953125,4.543970108032227,0.014356935396790504,7.680960655212402
1667255123152718800,1.25871875,4.46979284286499,0.02153540402650833,7.692924976348877
1667255123155198000,1.261197998046875,4.381258487701416,0.02392822690308094,7.700103282928467
1667255123157677300,1.26367724609375,4.347758769989014,0.04785645380616188,7.714460372924805
1667255123160156700,1.26615673828125,4.357329845428467,0.07657032459974289,7.738388538360596
1667255123162635800,1.2686357421875,4.371686935424805,0.10049854964017868,7.812565803527832
1667255123165115100,1.271115234375,4.35254430770874,0.1339980661869049,7.893921852111816
1667255123167594200,1.27359423828125,4.366901397705078,0.16749759018421173,7.999206066131592
1667255123170073600,1.276073486328125,4.374079704284668,0.22492532432079315,8.102097511291504
1667255123172553000,1.278552978515625,4.369294166564941,0.2632105052471161,8.188239097595215
1667255123175032000,1.281031982421875,4.41475772857666,0.31345975399017334,8.288737297058105
1667255123177511400,1.283511474609375,4.453042984008789,0.38285163044929504,8.37966537475586
1667255123179990500,1.285990478515625,4.515256404876709,0.4331009089946747,8.441878318786621
1667255123182470000,1.288469970703125,4.6061835289001465,0.44027936458587646,8.513663291931152
1667255123184949200,1.29094921875,4.728217601776123,0.45224347710609436,8.58066177368164
1667255123187428400,1.293428466796875,4.847858905792236,0.43549370765686035,8.62612533569336
1667255123189907700,1.29590771484375,4.907679080963135,0.39481574296951294,8.688339233398438
1667255123192387000,1.298386962890625,4.986642360687256,0.34695929288864136,8.74337387084961
1667255123194866200,1.3008662109375,5.020142078399658,0.3038884699344635,8.784051895141602
1667255123197345500,1.303345458984375,5.063212871551514,0.2584248483181,8.796015739440918
1667255123199825000,1.305824951171875,5.082355499267578,0.22492532432079315,8.81515884399414
1667255123202304000,1.308303955078125,5.06799840927124,0.22971096634864807,8.81515884399414
1667255123204783400,1.310783447265625,5.089533805847168,0.23210379481315613,8.831908226013184
1667255123207262500,1.313262451171875,5.103890895843506,0.26081767678260803,8.841479301452637
1667255123209741800,1.315741943359375,5.101497650146484,0.24885354936122894,8.886942863464355
1667255123212221200,1.31822119140625,5.091926574707031,0.21296121180057526,8.908478736877441
1667255123214700300,1.3207001953125,5.053641319274902,0.17228323221206665,8.918049812316895
1667255123217179600,1.3231796875,5.000999450683594,0.1339980661869049,8.922835350036621
1667255123219659000,1.325658935546875,4.9435715675354,0.1052841991186142,8.915657043457031
1667255123222138000,1.32813818359375,4.871787071228027,0.07896314561367035,8.886942863464355
1667255123224617500,1.330617431640625,4.785645484924316,0.06699903309345245,8.851051330566406
1667255123227096600,1.3330966796875,4.701896667480469,0.10289137065410614,8.824729919433594
1667255123229576000,1.335575927734375,4.642076015472412,0.1052841991186142,8.800801277160645
1667255123232055300,1.33805517578125,4.6061835289001465,0.10049854964017868,8.810373306274414
1667255123234534400,1.340534423828125,4.584648132324219,0.09810572862625122,8.80798053741455
1667255123237013800,1.343013671875,4.5822553634643555,0.10049854964017868,8.824729919433594
1667255123239493000,1.3454931640625,4.60857629776001,0.11246266216039658,8.831908226013184
1667255123241972200,1.34797216796875,4.67078971862793,0.09571290761232376,8.8438720703125
1667255123244451600,1.35045166015625,4.744967460632324,0.08614161610603333,8.82951545715332
1667255123246930700,1.3529306640625,4.804787635803223,0.02153540402650833,8.803194046020508
1667255123249410000,1.35541015625,4.826323509216309,-0.0526420995593071,8.762516975402832
1667255123251889400,1.357889404296875,4.826323509216309,-0.13878370821475983,8.72183895111084
1667255123254368500,1.360368408203125,4.790431022644043,-0.23210379481315613,8.642875671386719
1667255123256848000,1.362847900390625,4.768895626068115,-0.30149564146995544,8.520841598510742
1667255123259327000,1.365326904296875,4.766502857208252,-0.3684946894645691,8.398807525634766
1667255123261806300,1.367806396484375,4.752145767211914,-0.4307080805301666,8.293522834777832
1667255123264285700,1.37028564453125,4.766502857208252,-0.4785645306110382,8.207381248474121
1667255123266764800,1.372764892578125,4.926821708679199,-0.5718846321105957,8.209774017333984
1667255123269244200,1.375244140625,5.065605640411377,-0.7106683254241943,8.38684368133545
1667255123271723500,1.3777236328125,4.9435715675354,-0.8039883971214294,8.520841598510742
1667255123274202600,1.38020263671875,4.689932346343994,-0.8183453679084778,8.532805442810059
1667255123276682000,1.382681884765625,4.517649173736572,-0.8087740540504456,8.477770805358887
1667255123279161000,1.3851611328125,4.4410786628723145,-0.7728816866874695,8.451449394226074
1667255123281640400,1.387640380859375,4.338187217712402,-0.7106683254241943,8.439485549926758
1667255123284119800,1.390119873046875,4.2831525802612305,-0.6245267391204834,8.427521705627441
1667255123286599000,1.392598876953125,4.2281174659729,-0.5120640397071838,8.403593063354492
1667255123289078300,1.395078369140625,4.211368083953857,-0.38285163044929504,8.398807525634766
1667255123291557400,1.397557373046875,4.223331928253174,-0.24885354936122894,8.389236450195312
1667255123294036700,1.40003662109375,4.18983268737793,-0.1339980661869049,8.382058143615723
1667255123296516000,1.40251611328125,4.156332969665527,-0.031106693670153618,8.358129501342773
1667255123298995200,1.4049951171875,4.1419758796691895,0.08135596662759781,8.283951759338379
1667255123301474600,1.407474609375,4.192225456237793,0.1818545162677765,8.207381248474121
1667255123303954000,1.409953857421875,4.292723655700684,0.33499518036842346,8.15234661102295
1667255123306433000,1.41243310546875,4.383651256561279,0.4498506486415863,8.111668586730957
1667255123308912400,1.414912353515625,4.510470867156982,0.5407779216766357,8.118846893310547
1667255123311391500,1.4173916015625,4.677968502044678,0.6532405614852905,8.13081169128418
1667255123313870800,1.419870849609375,4.845465660095215,0.7776673436164856,8.116454124450684
1667255123316350200,1.42235009765625,5.015356063842773,0.9116654396057129,8.133204460144043
1667255123318829300,1.424829345703125,5.190032482147217,0.9978070259094238,8.188239097595215
1667255123321308700,1.42730859375,5.338387489318848,1.0528420209884644,8.24566650390625
1667255123323788000,1.4297880859375,5.450850009918213,1.1102696657180786,8.283951759338379
1667255123326267100,1.43226708984375,5.551348686218262,1.129412293434143,8.315058708190918
1667255123328746500,1.43474658203125,5.627918720245361,1.155733346939087,8.338987350463867
1667255123331225600,1.4372255859375,5.678168296813965,1.1868400573730469,8.315058708190918
1667255123333705000,1.439705078125,5.737988471984863,1.1820544004440308,8.312665939331055
1667255123336184300,1.442184326171875,5.79063081741333,1.184447169303894,8.307880401611328
1667255123338663400,1.444663330078125,5.788238048553467,1.1629117727279663,8.319844245910645
1667255123341142800,1.447142822265625,5.814558982849121,1.098305583000183,8.35573673248291
1667255123343622000,1.449621826171875,5.840879917144775,0.9834501147270203,8.360522270202637
1667255123346101200,1.452101318359375,5.836094379425049,0.8327022790908813,8.358129501342773
1667255123348580600,1.45458056640625,5.812166213989258,0.6795616149902344,8.350951194763184
1667255123351059700,1.457059814453125,5.807380676269531,0.4977070987224579,8.319844245910645
1667255123353539000,1.4595390625,5.795416355133057,0.3038884699344635,8.281558990478516
1667255123356018400,1.462018310546875,5.804987907409668,0.14356936514377594,8.248059272766113
1667255123358497500,1.46449755859375,5.843272686004639,0.009571290574967861,8.181060791015625
1667255123360977000,1.466976806640625,5.867201328277588,-0.12442677468061447,8.09252643585205
1667255123363456000,1.4694560546875,5.879165172576904,-0.23449662327766418,7.984848976135254
1667255123365935400,1.471935302734375,5.84566593170166,-0.33499518036842346,7.867600917816162
1667255123368414700,1.474414794921875,5.7786664962768555,-0.4307080805301666,7.795815944671631
1667255123370893800,1.476893798828125,5.67338228225708,-0.5216353535652161,7.755138397216797
1667255123373373200,1.479373291015625,5.548955917358398,-0.5838487148284912,7.70967435836792
1667255123375852500,1.4818525390625,5.429314613342285,-0.6580262184143066,7.6737823486328125
1667255123378331600,1.48433154296875,5.328815937042236,-0.7441678643226624,7.661818027496338
1667255123380811000,1.48681103515625,5.225924491882324,-0.8039883971214294,7.635497093200684
1667255123383290000,1.4892900390625,5.139782905578613,-0.851844847202301,7.613961696624756
1667255123385769500,1.49176953125,5.063212871551514,-0.8398807644844055,7.590033531188965
1667255123388248800,1.494248779296875,5.06799840927124,-0.8159525394439697,7.554141044616699
1667255123390728000,1.49672802734375,5.142175674438477,-0.8039883971214294,7.491927623748779
1667255123393207300,1.499207275390625,5.19960355758667,-0.7824530005455017,7.463213920593262
1667255123395686700,1.501686767578125,5.20678186416626,-0.727418065071106,7.463213920593262
1667255123398165800,1.504165771484375,5.154139995574951,-0.6747759580612183,7.487142086029053
1667255123400645000,1.50664501953125,5.058426856994629,-0.6005984544754028,7.539783954620361
1667255123403124200,1.509124267578125,4.981856822967529,-0.5694918036460876,7.664210796356201
1667255123405603600,1.511603515625,4.979464054107666,-0.6005984544754028,7.910671710968018
1667255123408083000,1.5140830078125,5.01296329498291,-0.6029912829399109,8.166703224182129
1667255123410562000,1.51656201171875,5.056034088134766,-0.5742774605751038,8.37009334564209
1667255123413041400,1.51904150390625,5.154139995574951,-0.5096712112426758,8.511270523071289
1667255123415520800,1.521520751953125,5.225924491882324,-0.4091726839542389,8.568697929382324
1667255123418000000,1.523999755859375,5.276174068450928,-0.2919243574142456,8.528019905090332
1667255123420479200,1.526479248046875,5.335994720458984,-0.18903298676013947,8.482556343078613
1667255123422958600,1.52895849609375,5.395814895629883,-0.1052841991186142,8.449056625366211
1667255123425437700,1.531437744140625,5.450850009918213,-0.014356935396790504,8.398807525634766
1667255123427917000,1.5339169921875,5.469992637634277,0.04785645380616188,8.396414756774902
1667255123430396200,1.536396240234375,5.4795637130737305,0.11006984114646912,8.451449394226074
1667255123432875500,1.53887548828125,5.4795637130737305,0.15553347766399384,8.506484031677246
1667255123435355000,1.54135498046875,5.465207099914551,0.17706887423992157,8.525627136230469
1667255123437834000,1.543833984375,5.4173502922058105,0.1866401731967926,8.508877754211426
1667255123440313300,1.546313232421875,5.357530117034912,0.1818545162677765,8.532805442810059
1667255123442792700,1.548792724609375,5.295316696166992,0.16031911969184875,8.49452018737793
1667255123445271800,1.551271728515625,5.242674350738525,0.09810572862625122,8.470592498779297
1667255123447751200,1.553751220703125,5.240281581878662,0.03349951654672623,8.439485549926758
1667255123450230300,1.556230224609375,5.230710506439209,-0.016749758273363113,8.37727165222168
1667255123452709600,1.558709716796875,5.223531723022461,-0.062213387340307236,8.300702095031738
1667255123455189000,1.56118896484375,5.240281581878662,-0.13639089465141296,8.243273735046387
1667255123457668000,1.563668212890625,5.233103275299072,-0.1746760457754135,8.212167739868164
1667255123460147500,1.5661474609375,5.175675392150879,-0.2153540402650833,8.173882484436035
1667255123462626800,1.568626708984375,5.082355499267578,-0.25363919138908386,8.149953842163086
1667255123465106000,1.57110595703125,5.036891460418701,-0.2871387302875519,8.133204460144043
1667255123467585300,1.573585205078125,5.044070243835449,-0.3038884699344635,8.104490280151367
1667255123470064400,1.576064453125,5.024927616119385,-0.31345975399017334,8.037490844726562
1667255123472543700,1.578543701171875,5.029713153839111,-0.3397808074951172,7.963313579559326
1667255123475023000,1.581023193359375,5.036891460418701,-0.32303106784820557,7.946564197540283
1667255123477502200,1.583502197265625,4.9986066818237305,-0.2847459018230438,7.944170951843262
1667255123479981600,1.585981689453125,4.924428939819336,-0.26560330390930176,7.941778182983398
1667255123482461000,1.5884609375,4.847858905792236,-0.25363919138908386,7.936992645263672
1667255123484940000,1.59093994140625,4.7401814460754395,-0.23449662327766418,7.946564197540283
1667255123487419400,1.59341943359375,4.649254322052002,-0.275174617767334,7.9489569664001465
1667255123489898500,1.5958984375,4.524827480316162,-0.3397808074951172,7.944170951843262
1667255123492377900,1.5983779296875,4.412364959716797,-0.32542386651039124,7.9657063484191895
1667255123494857200,1.600857177734375,4.364508628845215,-0.32303106784820557,7.984848976135254
1667255123497336300,1.60333642578125,4.311866283416748,-0.27756741642951965,8.008777618408203
1667255123499815700,1.605815673828125,4.256831645965576,-0.2273181527853012,8.037490844726562
1667255123502294800,1.608294677734375,4.211368083953857,-0.18424734473228455,8.049455642700195
1667255123504774100,1.610774169921875,4.144368648529053,-0.13160525262355804,8.039883613586426
1667255123507253500,1.61325341796875,4.07258415222168,-0.11964113265275955,8.042277336120605
1667255123509732600,1.615732666015625,3.988835334777832,-0.12681959569454193,8.066205024719238
1667255123512212000,1.6182119140625,3.9122650623321533,-0.15074782073497772,8.073383331298828
1667255123514691300,1.62069140625,3.8213376998901367,-0.19621145725250244,8.104490280151367
1667255123517170400,1.62317041015625,3.728017568588257,-0.22971096634864807,8.154739379882812
1667255123519649800,1.62564990234375,3.6466617584228516,-0.23210379481315613,8.202595710754395
1667255123522129000,1.62812890625,3.579662561416626,-0.22971096634864807,8.26241683959961
1667255123524608300,1.630608154296875,3.4911282062530518,-0.20817556977272034,8.358129501342773
1667255123527087600,1.633087646484375,3.431307554244995,-0.16749759018421173,8.427521705627441
1667255123529566700,1.635566650390625,3.4337005615234375,-0.1339980661869049,8.432307243347168
1667255123532046000,1.638046142578125,3.5126636028289795,-0.11485548317432404,8.427521705627441
1667255123534525400,1.640525390625,3.6945180892944336,-0.08374879509210587,8.401200294494629
1667255123537004500,1.643004638671875,3.9696927070617676,-0.035892341285943985,8.3629150390625
1667255123539484000,1.64548388671875,4.237689018249512,0.02153540402650833,8.3629150390625
1667255123541963000,1.647962890625,4.438685894012451,0.062213387340307236,8.358129501342773
1667255123544442400,1.6504423828125,4.570291042327881,0.062213387340307236,8.360522270202637
1667255123546921700,1.652921630859375,4.658825874328613,0.05742774158716202,8.350951194763184
1667255123549400800,1.65540087890625,4.752145767211914,0.019142581149935722,8.324629783630371
1667255123551880200,1.657880126953125,4.823930263519287,-0.02871387079358101,8.322237014770508
1667255123554359600,1.660359619140625,4.869394302368164,-0.07657032459974289,8.305487632751465
1667255123556838700,1.662838623046875,4.883750915527344,-0.07417750358581543,8.293522834777832
1667255123559318000,1.665318115234375,4.890929698944092,-0.062213387340307236,8.298309326171875
1667255123561797000,1.667797119140625,4.9124650955200195,-0.02871387079358101,8.281558990478516
1667255123564276500,1.6702763671875,4.914857864379883,0.02392822690308094,8.307880401611328
1667255123566755800,1.672755859375,4.924428939819336,0.0933200865983963,8.343772888183594
1667255123569235000,1.67523486328125,4.917250633239746,0.11724831163883209,8.389236450195312
1667255123571714300,1.67771435546875,4.898108005523682,0.16510476171970367,8.415556907653809
1667255123574193700,1.680193603515625,4.88853645324707,0.15553347766399384,8.441878318786621
1667255123576672800,1.6826728515625,4.893322467803955,0.17706887423992157,8.446663856506348
1667255123579152100,1.685152099609375,4.931607246398926,0.22492532432079315,8.441878318786621
1667255123581631200,1.68763134765625,4.967499732971191,0.2919243574142456,8.47298526763916
1667255123584110600,1.690110595703125,4.991427898406982,0.349352091550827,8.532805442810059
1667255123586590000,1.69258984375,5.008177757263184,0.3852444589138031,8.58066177368164
1667255123589069000,1.695069091796875,5.008177757263184,0.44745782017707825,8.623732566833496
1667255123591548400,1.69754833984375,5.01296329498291,0.5096712112426758,8.685946464538574
1667255123594027500,1.700027587890625,5.044070243835449,0.5647061467170715,8.748159408569336
1667255123596507000,1.7025068359375,5.065605640411377,0.6005984544754028,8.810373306274414
1667255123598986200,1.704986328125,5.099104881286621,0.6340979933738708,8.870193481445312
1667255123601465300,1.70746533203125,5.1182475090026855,0.6747759580612183,8.951549530029297
1667255123603944700,1.70994482421875,5.13021183013916,0.6915257573127747,8.999405860900879
1667255123606424000,1.712424072265625,5.127819061279297,0.7106683254241943,9.037691116333008
1667255123608903200,1.714903076171875,5.146961688995361,0.7034898400306702,9.025727272033691
1667255123611382500,1.717382568359375,5.161318302154541,0.6963114142417908,8.997013092041016
1667255123613861600,1.719861572265625,5.175675392150879,0.6747759580612183,8.970691680908203
1667255123616341000,1.722341064453125,5.194818019866943,0.6652047038078308,8.994620323181152
1667255123618820400,1.7248203125,5.221138954162598,0.6532405614852905,9.008976936340332
1667255123621299500,1.727299560546875,5.264209747314453,0.6484549641609192,9.023334503173828
1667255123623778800,1.72977880859375,5.328815937042236,0.6245267391204834,9.040083885192871
1667255123626258200,1.732258056640625,5.422136306762695,0.5814558863639832,9.032905578613281
1667255123628737300,1.7347373046875,5.536991596221924,0.5120640397071838,8.9850492477417
1667255123631216600,1.737216552734375,5.651846885681152,0.4331009089946747,8.958727836608887
1667255123633696000,1.739696044921875,5.7619171142578125,0.349352091550827,8.95394229888916
1667255123636175000,1.742175048828125,5.891129493713379,0.2632105052471161,8.941978454589844
1667255123638654500,1.744654541015625,6.005984783172607,0.14835500717163086,8.93958568572998
1667255123641133600,1.747133544921875,6.120840549468994,0.05742774158716202,8.930013656616211
1667255123643613000,1.749613037109375,6.247660160064697,-0.04307080805301666,8.898907661437988
1667255123646092300,1.75209228515625,6.415157318115234,-0.15074782073497772,8.855836868286133
1667255123648571400,1.7545712890625,6.599404811859131,-0.21296121180057526,8.798408508300781
1667255123651050800,1.75705078125,6.7692952156066895,-0.27756741642951965,8.709874153137207
1667255123653530000,1.759530029296875,6.9104719161987305,-0.32303106784820557,8.642875671386719
1667255123656009200,1.76200927734375,7.0061845779418945,-0.363709032535553,8.597412109375
1667255123658488600,1.764488525390625,7.054041385650635,-0.38285163044929504,8.556734085083008
1667255123660967700,1.7669677734375,7.04207706451416,-0.4163511395454407,8.525627136230469
1667255123663447000,1.769447021484375,6.970292568206787,-0.4426721930503845,8.47298526763916
1667255123665926400,1.771926513671875,6.865008354187012,-0.4498506486415863,8.427521705627441
1667255123668405500,1.774405517578125,6.723831653594971,-0.47617170214653015,8.389236450195312
1667255123670884900,1.776884765625,6.570691108703613,-0.4905286431312561,8.360522270202637
1667255123673364200,1.7793642578125,6.410371780395508,-0.49292147159576416,8.338987350463867
1667255123675843300,1.78184326171875,6.240481376647949,-0.47617170214653015,8.329415321350098
1667255123678322700,1.78432275390625,6.041877269744873,-0.45942193269729614,8.34855842590332
1667255123680801800,1.7868017578125,5.819344520568848,-0.4378865361213684,8.396414756774902
1667255123683281200,1.78928125,5.54177713394165,-0.397208571434021,8.444271087646484
1667255123685760500,1.791760498046875,5.19960355758667,-0.3326023519039154,8.50169849395752
1667255123688239600,1.794239501953125,4.821537494659424,-0.25363919138908386,8.530412673950195
1667255123690719000,1.796718994140625,4.443471431732178,-0.15553347766399384,8.537590980529785
1667255123693198300,1.7991982421875,4.089334011077881,-0.035892341285943985,8.563912391662598
1667255123695677400,1.801677490234375,3.751945972442627,0.06939185410737991,8.58066177368164
1667255123698156800,1.80415673828125,3.462414264678955,0.1746760457754135,8.590232849121094
1667255123700636000,1.806635986328125,3.2039895057678223,0.2727817893028259,8.590232849121094
1667255123703115300,1.809115234375,3.022135019302368,0.35413774847984314,8.60459041595459
1667255123705594600,1.8115947265625,2.8977081775665283,0.39960137009620667,8.590232849121094
1667255123708073700,1.81407373046875,2.8283164501190186,0.41874396800994873,8.539983749389648
1667255123710553000,1.816552978515625,2.7876384258270264,0.4498506486415863,8.482556343078613
1667255123713032400,1.819032470703125,2.816352367401123,0.4498506486415863,8.415556907653809
1667255123715511600,1.821511474609375,2.8689942359924316,0.43549370765686035,8.382058143615723
1667255123717991000,1.823990966796875,2.9599215984344482,0.4259224236011505,8.3629150390625
1667255123720470300,1.82647021484375,3.084348440170288,0.4019941985607147,8.334200859069824
1667255123722949400,1.828949462890625,3.2542388439178467,0.3900300860404968,8.310273170471191
1667255123725428700,1.8314287109375,3.486342668533325,0.3445664644241333,8.317451477050781
1667255123727907800,1.833907958984375,3.7471601963043213,0.3038884699344635,8.324629783630371
1667255123730387200,1.83638720703125,4.00319242477417,0.26560330390930176,8.358129501342773
1667255123732866600,1.838866455078125,4.271188259124756,0.22971096634864807,8.422736167907715
1667255123735345700,1.841345703125,4.534399032592773,0.20578274130821228,8.496912956237793
1667255123737825000,1.843824951171875,4.759324073791504,0.16749759018421173,8.559126853942871
1667255123740304100,1.84630419921875,4.931607246398926,0.14356936514377594,8.621339797973633
1667255123742783500,1.848783447265625,5.048855781555176,0.11964113265275955,8.671588897705078
1667255123745262800,1.851262939453125,5.123033046722412,0.10289137065410614,8.719446182250977
1667255123747742000,1.853741943359375,5.149354457855225,0.09810572862625122,8.788837432861328
1667255123750221300,1.85622119140625,5.1182475090026855,0.10049854964017868,8.882157325744629
1667255123752700700,1.85870068359375,5.020142078399658,0.11485548317432404,8.97787094116211
1667255123755179800,1.8611796875,4.871787071228027,0.1579262912273407,9.08554744720459
1667255123757659100,1.8636591796875,4.646861553192139,0.24406790733337402,9.198010444641113
1667255123760138500,1.866138427734375,4.340580463409424,0.363709032535553,9.317651748657227
1667255123762617600,1.86861767578125,3.972085475921631,0.49292147159576416,9.394221305847168
1667255123765097000,1.871096923828125,3.541377544403076,0.6508477330207825,9.470791816711426
1667255123767576000,1.873576171875,3.077169895172119,0.7968099117279053,9.521040916442871
1667255123770055400,1.876055419921875,2.581855535507202,0.9451649188995361,9.573683738708496
1667255123772534800,1.87853466796875,2.1128623485565186,1.0815558433532715,9.633503913879395
1667255123775014000,1.881013916015625,1.6869399547576904,1.2035897970199585,9.667003631591797
1667255123777493200,1.8834931640625,1.2921242713928223,1.2921242713928223,9.719645500183105
1667255123779972600,1.88597265625,0.9451649188995361,1.3663017749786377,9.772287368774414
1667255123782451700,1.88845166015625,0.6891329288482666,1.4333007335662842,9.817750930786133
1667255123784931000,1.89093115234375,0.47617170214653015,1.5074782371520996,9.822537422180176
1667255123787410200,1.89341015625,0.33020952343940735,1.521835207939148,9.824930191040039
1667255123789889500,1.8958896484375,0.23449662327766418,1.5553346872329712,9.844072341918945
1667255123792369000,1.898368896484375,0.18424734473228455,1.5649060010910034,9.870393753051758
1667255123794848000,1.900847900390625,0.17946170270442963,1.5720844268798828,9.882357597351074
1667255123797327400,1.903327392578125,0.2153540402650833,1.576870083808899,9.879964828491211
1667255123799806700,1.905806640625,0.2991028428077698,1.5290136337280273,9.877572059631348
1667255123802285800,1.908285888671875,0.39960137009620667,1.4739787578582764,9.868000984191895
1667255123804765200,1.91076513671875,0.5096712112426758,1.4189438819885254,9.858428955078125
1667255123807244500,1.91324462890625,0.5910272002220154,1.34476637840271,9.81535816192627
1667255123809723600,1.9157236328125,0.6795616149902344,1.2323036193847656,9.774680137634277
1667255123812203000,1.918203125,0.7657032608985901,1.100698471069336,9.722038269042969
1667255123814682000,1.92068212890625,0.8327022790908813,0.9810572862625122,9.664610862731934
1667255123817161500,1.923161376953125,0.8781659007072449,0.885344386100769,9.633503913879395
1667255123819640800,1.925640869140625,0.8901300430297852,0.7968099117279053,9.580862045288086
1667255123822120000,1.928119873046875,0.9068797826766968,0.7322037220001221,9.523433685302734
1667255123824599300,1.930599365234375,0.9260223507881165,0.6604190468788147,9.454042434692383
1667255123827078700,1.93307861328125,0.973878800868988,0.6029912829399109,9.43489933013916
1667255123829557800,1.935557861328125,1.031306505203247,0.5575276613235474,9.410971641540527
1667255123832037000,1.938037109375,1.098305583000183,0.5407779216766357,9.365508079528809
1667255123834516200,1.94051611328125,1.1820544004440308,0.5335994362831116,9.31047248840332
1667255123836995600,1.94299560546875,1.2921242713928223,0.5120640397071838,9.267401695251465
1667255123839475000,1.945474853515625,1.4404792785644531,0.49292147159576416,9.248259544372559
1667255123841954000,1.9479541015625,1.5984054803848267,0.4953143000602722,9.20997428894043
1667255123844433400,1.950433349609375,1.797009825706482,0.5000999569892883,9.150154113769531
1667255123846912800,1.952912841796875,2.00518536567688,0.49292147159576416,9.119047164916992
1667255123849391900,1.955391845703125,2.1750757694244385,0.4713860750198364,9.119047164916992
1667255123851871200,1.957871337890625,2.2947168350219727,0.4570291340351105,9.142974853515625
1667255123854350600,1.9603505859375,2.390429735183716,0.4546363055706024,9.1716890335083
1667255123856829700,1.96282958984375,2.4406790733337402,0.4546363055706024,9.19561767578125
1667255123859309000,1.96530908203125,2.4813570976257324,0.48574298620224,9.253045082092285
1667255123861788200,1.9677880859375,2.50289249420166,0.5048855543136597,9.298508644104004
1667255123864267500,1.970267578125,2.510071039199829,0.5312066078186035,9.339186668395996
1667255123866747000,1.972746826171875,2.4813570976257324,0.5575276613235474,9.394221305847168
1667255123869226000,1.97522607421875,2.4335005283355713,0.5934200286865234,9.418149948120117
1667255123871705300,1.977705322265625,2.4047868251800537,0.5982056856155396,9.4061861038208
1667255123874184700,1.980184814453125,2.3712873458862305,0.5958128571510315,9.408578872680664
1667255123876663800,1.982663818359375,2.3641088008880615,0.6125625967979431,9.389435768127441
1667255123879143200,1.98514306640625,2.3497519493103027,0.5982056856155396,9.339186668395996
1667255123881622300,1.987622314453125,2.342573404312134,0.5742774605751038,9.31047248840332
1667255123884101600,1.9901015625,2.311466693878174,0.519242525100708,9.255437850952148
1667255123886581000,1.9925810546875,2.2779672145843506,0.45942193269729614,9.212367057800293
1667255123889060000,1.99506005859375,2.258824586868286,0.3924229145050049,9.18843936920166
1667255123891539500,1.99753955078125,2.234896421432495,0.3517449200153351,9.166903495788574
1667255123894018800,2.000018798828125,2.218146562576294,0.33020952343940735,9.157332420349121
1667255123896498000,2.002497802734375,2.1990039348602295,0.2967100143432617,9.126225471496582
1667255123898977300,2.004977294921875,2.1822543144226074,0.2584248483181,9.154939651489258
1667255123901456400,2.007456298828125,2.203789710998535,0.27038896083831787,9.164510726928711
1667255123903935700,2.009935791015625,2.2157537937164307,0.2632105052471161,9.193224906921387
1667255123906415000,2.0124150390625,2.249253273010254,0.24885354936122894,9.233902931213379
1667255123908894200,2.014894287109375,2.251646041870117,0.23688943684101105,9.248259544372559
1667255123911373600,2.01737353515625,2.2372891902923584,0.2225325107574463,9.269794464111328
1667255123913853000,2.01985302734375,2.225325107574463,0.19621145725250244,9.269794464111328
1667255123916332000,2.02233203125,2.210968017578125,0.1746760457754135,9.267401695251465
1667255123918811400,2.024811279296875,2.1750757694244385,0.1698904037475586,9.265008926391602
1667255123921290800,2.027290771484375,2.1678972244262695,0.13160525262355804,9.231510162353516
1667255123923769900,2.029769775390625,2.179861545562744,0.09092725813388824,9.200403213500977
1667255123926249200,2.032249267578125,2.210968017578125,0.05024927482008934,9.181260108947754
1667255123928728300,2.034728271484375,2.256431818008423,0.03349951654672623,9.150154113769531
1667255123931207700,2.037207763671875,2.3162522315979004,0.009571290574967861,9.116654396057129
1667255123933687000,2.03968701171875,2.376072883605957,-0.007178467698395252,9.042476654052734
1667255123936166100,2.042166259765625,2.423929452896118,-0.009571290574967861,9.040083885192871
1667255123938645500,2.0446455078125,2.4741785526275635,-0.009571290574967861,9.035298347473145
1667255123941124900,2.047124755859375,2.5196423530578613,0,8.999405860900879
1667255123943604000,2.04960400390625,2.581855535507202,0.038285162299871445,8.987442016601562
1667255123946083300,2.052083251953125,2.6225335597991943,0.08135596662759781,9.001798629760742
1667255123948562700,2.054562744140625,2.65842604637146,0.12921242415905,9.05444049835205
1667255123951041800,2.057041748046875,2.6871397495269775,0.20817556977272034,9.116654396057129
1667255123953521200,2.059521240234375,2.691925525665283,0.2871387302875519,9.198010444641113
1667255123956000300,2.062000244140625,2.6871397495269775,0.3613162338733673,9.281759262084961
1667255123958479600,2.064479736328125,2.7110681533813477,0.42352959513664246,9.34875774383545
1667255123960959000,2.066958984375,2.720639228820801,0.4666004180908203,9.422935485839844
1667255123963438000,2.06943798828125,2.720639228820801,0.5120640397071838,9.506684303283691
1667255123965917400,2.07191748046875,2.715853691101074,0.5599204897880554,9.55214786529541
1667255123968396800,2.074396728515625,2.7110681533813477,0.5910272002220154,9.619147300720215
1667255123970876000,2.0768759765625,2.7038896083831787,0.6125625967979431,9.66939640045166
1667255123973355300,2.079355224609375,2.6967110633850098,0.6340979933738708,9.702896118164062
1667255123975834600,2.081834716796875,2.691925525665283,0.6317051649093628,9.719645500183105
1667255123978313700,2.084313720703125,2.7110681533813477,0.6364908218383789,9.705288887023926
1667255123980793000,2.08679296875,2.723032236099243,0.641276478767395,9.698110580444336
1667255123983272200,2.089272216796875,2.7661030292510986,0.6173482537269592,9.678967475891113
1667255123985751600,2.09175146484375,2.7972097396850586,0.5599204897880554,9.609575271606445
1667255123988231000,2.09423095703125,2.816352367401123,0.5216353535652161,9.547362327575684
1667255123990710000,2.0967099609375,2.8187451362609863,0.4833501875400543,9.485149383544922
1667255123993189400,2.099189453125,2.833101987838745,0.4163511395454407,9.389435768127441
1667255123995668700,2.101668701171875,2.854637384414673,0.3732803463935852,9.293723106384277
1667255123998147800,2.10414794921875,2.854637384414673,0.3397808074951172,9.212367057800293
1667255124000627200,2.106627197265625,2.8522446155548096,0.29431718587875366,9.138189315795898
1667255124003106600,2.1091064453125,2.840280532836914,0.24167509377002716,9.073583602905273
1667255124005585700,2.111585693359375,2.809173822402954,0.19381862878799438,9.040083885192871
1667255124008065000,2.11406494140625,2.7876384258270264,0.16510476171970367,9.011369705200195
1667255124010544000,2.116544189453125,2.7828526496887207,0.12681959569454193,9.008976936340332
1667255124013023500,2.1190234375,2.801995277404785,0.08853443711996078,8.980263710021973
1667255124015502800,2.1215029296875,2.8354947566986084,0.07657032459974289,8.989834785461426
1667255124017982000,2.12398193359375,2.8737800121307373,0.064606212079525,8.992227554321289
1667255124020461300,2.12646142578125,2.9383862018585205,0.064606212079525,8.997013092041016
1667255124022940700,2.128940673828125,3.0005996227264404,0.07178468257188797,9.035298347473145
1667255124025419800,2.131419677734375,3.0628130435943604,0.08374879509210587,9.107083320617676
1667255124027899100,2.133899169921875,3.13220477104187,0.11485548317432404,9.142974853515625
1667255124030378200,2.136378173828125,3.208775281906128,0.16271193325519562,9.207581520080566
1667255124032857600,2.138857666015625,3.2709884643554688,0.18424734473228455,9.284152030944824
1667255124035337000,2.1413369140625,3.345165967941284,0.23210379481315613,9.339186668395996
1667255124037816000,2.143816162109375,3.4265220165252686,0.2799602448940277,9.418149948120117
1667255124040295400,2.14629541015625,3.510270833969116,0.33499518036842346,9.487542152404785
1667255124042774800,2.14877490234375,3.6059837341308594,0.397208571434021,9.53779125213623
1667255124045254000,2.15125390625,3.7088751792907715,0.45942193269729614,9.607182502746582
1667255124047733200,2.153733154296875,3.8189449310302734,0.4953143000602722,9.664610862731934
1667255124050212400,2.15621240234375,3.9122650623321533,0.5216353535652161,9.712467193603516
1667255124052691700,2.158691650390625,3.996013879776001,0.5575276613235474,9.767501831054688
1667255124055171000,2.161171142578125,4.043870449066162,0.5934200286865234,9.805787086486816
1667255124057650200,2.163650146484375,4.06540584564209,0.6340979933738708,9.844072341918945
1667255124060129500,2.166129638671875,4.041477680206299,0.6556333899497986,9.863214492797852
1667255124062609000,2.16860888671875,4.0079779624938965,0.6795616149902344,9.870393753051758
1667255124065088000,2.171087890625,3.9361932277679443,0.7178468108177185,9.875179290771484
1667255124067567400,2.1735673828125,3.8596229553222656,0.7345965504646301,9.844072341918945
1667255124070046500,2.17604638671875,3.7639100551605225,0.7776673436164856,9.812965393066406
1667255124072525800,2.17852587890625,3.649054527282715,0.8039883971214294,9.784252166748047
1667255124075005200,2.181005126953125,3.524627685546875,0.8159525394439697,9.779465675354004
1667255124077484300,2.183484375,3.404986619949341,0.7992027401924133,9.77707290649414
1667255124079963600,2.185963623046875,3.263810157775879,0.8087740540504456,9.748359680175781
1667255124082443000,2.188443115234375,3.115455150604248,0.8255237936973572,9.719645500183105
1667255124084922000,2.190922119140625,3.0005996227264404,0.8327022790908813,9.702896118164062
1667255124087401500,2.1934013671875,2.8666014671325684,0.8350951075553894,9.659825325012207
1667255124089880800,2.195880859375,2.715853691101074,0.8470591902732849,9.635896682739258
1667255124092360000,2.19835986328125,2.572284460067749,0.8374879360198975,9.57607650756836
1667255124094839300,2.20083935546875,2.4813570976257324,0.8279166221618652,9.523433685302734
1667255124097318400,2.203318359375,2.3952155113220215,0.8015955686569214,9.497113227844238
1667255124099797800,2.2057978515625,2.342573404312134,0.7872386574745178,9.482755661010742
1667255124102277000,2.208277099609375,2.321038007736206,0.7441678643226624,9.456435203552246
1667255124104756200,2.210756103515625,2.3258235454559326,0.7058826684951782,9.430113792419434
1667255124107235600,2.213235595703125,2.3712873458862305,0.6532405614852905,9.403793334960938
1667255124109715000,2.21571484375,2.4335005283355713,0.6125625967979431,9.365508079528809
1667255124112194000,2.218194091796875,2.50289249420166,0.5838487148284912,9.32004451751709
1667255124114673400,2.22067333984375,2.589034080505371,0.5790630578994751,9.293723106384277
1667255124117152800,2.22315283203125,2.667997360229492,0.5623133182525635,9.28893756866455
1667255124119632000,2.2256318359375,2.7349963188171387,0.576670229434967,9.272188186645508
1667255124122111200,2.228111328125,2.799602508544922,0.5814558863639832,9.260223388671875
1667255124124590300,2.23059033203125,2.864208698272705,0.6125625967979431,9.274580955505371
1667255124127069700,2.233069580078125,2.919243574142456,0.6484549641609192,9.262616157531738
1667255124129549000,2.235549072265625,2.964707374572754,0.7058826684951782,9.248259544372559
1667255124132028200,2.238028076171875,2.9838497638702393,0.729810893535614,9.212367057800293
1667255124134507500,2.240507568359375,2.991028308868408,0.7417750358581543,9.181260108947754
1667255124136987000,2.24298681640625,2.9623143672943115,0.7704889178276062,9.142974853515625
1667255124139466000,2.245466064453125,2.943171739578247,0.763310432434082,9.109476089477539
1667255124141945300,2.2479453125,2.9216363430023193,0.7680960893630981,9.06401252746582
1667255124144424700,2.2504248046875,2.8929226398468018,0.7393822073936462,8.999405860900879
1667255124146903800,2.25290380859375,2.8833513259887695,0.6771687865257263,8.963513374328613
1667255124149383200,2.255383056640625,2.830709218978882,0.6245267391204834,8.910871505737305
1667255124151862500,2.257862548828125,2.761317253112793,0.5599204897880554,8.874979019165039
1667255124154341600,2.260341552734375,2.6943182945251465,0.5359922647476196,8.82951545715332
1667255124156821000,2.262821044921875,2.6249263286590576,0.5312066078186035,8.788837432861328
1667255124159300000,2.265300048828125,2.5435705184936523,0.5264210104942322,8.762516975402832
1667255124161779500,2.267779541015625,2.4646072387695312,0.5647061467170715,8.74337387084961
1667255124164258800,2.2702587890625,2.3712873458862305,0.6245267391204834,8.700303077697754
1667255124166738000,2.272738037109375,2.2540390491485596,0.6939185857772827,8.71226692199707
1667255124169217300,2.27521728515625,2.163111686706543,0.7968099117279053,8.726624488830566
1667255124171696600,2.277696533203125,2.0554347038269043,0.8997012972831726,8.745766639709473
1667255124174175700,2.28017578125,1.950150489807129,1.0265209674835205,8.762516975402832
1667255124176655000,2.282655029296875,1.8759729862213135,1.1318050622940063,8.805587768554688
1667255124179134500,2.285134521484375,1.8113667964935303,1.222732424736023,8.855836868286133
1667255124181613600,2.287613525390625,1.7515461444854736,1.3040883541107178,8.910871505737305
1667255124184093000,2.290093017578125,1.7132610082626343,1.3567304611206055,8.987442016601562
1667255124186572300,2.292572265625,1.7084753513336182,1.4093725681304932,9.066405296325684
1667255124189051400,2.295051513671875,1.734796404838562,1.4165509939193726,9.150154113769531
1667255124191530800,2.29753076171875,1.8041882514953613,1.397408366203308,9.20279598236084
1667255124194009900,2.300009765625,1.9166508913040161,1.3926228284835815,9.243474006652832
1667255124196489200,2.3024892578125,2.0673987865448,1.368694543838501,9.28893756866455
1667255124198968600,2.304968505859375,2.256431818008423,1.31365966796875,9.312865257263184
1667255124201447700,2.30744775390625,2.469393014907837,1.2442678213119507,9.30329418182373
1667255124203927000,2.309927001953125,2.713460922241211,1.1700903177261353,9.300901412963867
1667255124206406400,2.312406494140625,2.974278450012207,1.100698471069336,9.276973724365234
1667255124208885500,2.314885498046875,3.2446675300598145,1.0169496536254883,9.274580955505371
1667255124211364900,2.31736474609375,3.4911282062530518,0.916451096534729,9.243474006652832
1667255124213844000,2.319843994140625,3.696911096572876,0.8111668825149536,9.212367057800293
1667255124216323300,2.3223232421875,3.8356947898864746,0.7345965504646301,9.18843936920166
1667255124218802700,2.324802734375,3.91705060005188,0.672383189201355,9.1716890335083
1667255124221281800,2.32728173828125,3.9601213932037354,0.6197410821914673,9.1716890335083
1667255124223761200,2.32976123046875,3.9601213932037354,0.5647061467170715,9.169296264648438
1667255124226240500,2.332240478515625,3.9314076900482178,0.5120640397071838,9.205188751220703
1667255124228719600,2.3347197265625,3.869194269180298,0.5048855543136597,9.22433090209961
1667255124231199000,2.337198974609375,3.761517286300659,0.5072783827781677,9.250652313232422
1667255124233678000,2.339677978515625,3.6370904445648193,0.5455635786056519,9.260223388671875
1667255124236157400,2.342157470703125,3.5054850578308105,0.5670989751815796,9.298508644104004
1667255124238636800,2.34463671875,3.38105845451355,0.576670229434967,9.322437286376953
1667255124241116000,2.347115966796875,3.2757742404937744,0.5790630578994751,9.372686386108398
1667255124243595300,2.34959521484375,3.1657042503356934,0.5838487148284912,9.399007797241211
1667255124246074600,2.35207470703125,3.0867412090301514,0.5934200286865234,9.43489933013916
1667255124248553700,2.3545537109375,3.0269205570220947,0.5934200286865234,9.470791816711426
1667255124251033000,2.357033203125,2.9623143672943115,0.6364908218383789,9.461220741271973
1667255124253512400,2.359512451171875,2.8929226398468018,0.6915257573127747,9.487542152404785
1667255124255991600,2.361991455078125,2.861815929412842,0.7369893789291382,9.511469841003418
1667255124258471000,2.364470947265625,2.864208698272705,0.7728816866874695,9.523433685302734
1667255124260950300,2.3669501953125,2.878565549850464,0.8374879360198975,9.540184020996094
1667255124263429400,2.369429443359375,2.8929226398468018,0.8805587291717529,9.53779125213623
1667255124265908700,2.37190869140625,2.909672260284424,0.9020941257476807,9.509077072143555
1667255124268387800,2.374387939453125,2.9168508052825928,0.9260223507881165,9.516255378723145
1667255124270867200,2.3768671875,2.9216363430023193,0.9403793215751648,9.521040916442871
1667255124273346600,2.3793466796875,2.8905298709869385,0.9355936646461487,9.516255378723145
1667255124275825700,2.38182568359375,2.8522446155548096,0.9355936646461487,9.54496955871582
1667255124278305000,2.384304931640625,2.825923442840576,0.9379864931106567,9.580862045288086
1667255124280784400,2.386784423828125,2.801995277404785,0.9451649188995361,9.607182502746582
1667255124283263500,2.389263427734375,2.785245656967163,0.9906286001205444,9.652647018432617
1667255124285742800,2.391742919921875,2.785245656967163,0.9978070259094238,9.726823806762695
1667255124288222200,2.39422216796875,2.7732813358306885,0.9978070259094238,9.791430473327637
1667255124290701300,2.396701416015625,2.768495798110962,1.0145567655563354,9.836894035339355
1667255124293180700,2.3991806640625,2.7493531703948975,1.031306505203247,9.89432144165039
1667255124295660000,2.401659912109375,2.761317253112793,1.0480563640594482,9.942177772521973
1667255124298139100,2.40413916015625,2.8283164501190186,1.038485050201416,9.982855796813965
1667255124300618500,2.406618408203125,2.9048867225646973,1.0456634759902954,10.00439167022705
1667255124303097600,2.40909765625,2.9766714572906494,1.0241280794143677,10.03310489654541
1667255124305577000,2.411576904296875,3.0484559535980225,1.0193424224853516,10.076175689697266
1667255124308056300,2.414056396484375,3.122633457183838,0.9834501147270203,10.076175689697266
1667255124310535400,2.416535400390625,3.211168050765991,0.9236295223236084,10.085747718811035
1667255124313014800,2.419014892578125,3.2829527854919434,0.8733802437782288,10.104889869689941
1667255124315494100,2.421494140625,3.335594654083252,0.8327022790908813,10.107282638549805
1667255124317973200,2.42397314453125,3.373879909515381,0.8015955686569214,10.102497100830078
1667255124320452600,2.42645263671875,3.390629768371582,0.7920243144035339,10.13599681854248
1667255124322932000,2.428931884765625,3.3954153060913086,0.8255237936973572,10.15753173828125
1667255124325411000,2.4314111328125,3.3714871406555176,0.8709874153137207,10.15753173828125
1667255124327890400,2.433890380859375,3.3308091163635254,0.9212366938591003,10.147960662841797
1667255124330369500,2.43636962890625,3.2781670093536377,0.9667003750801086,10.147960662841797
1667255124332849000,2.438848876953125,3.2231321334838867,1.0241280794143677,10.1814603805542
1667255124335328300,2.441328369140625,3.1178479194641113,1.0959128141403198,10.1814603805542
1667255124337807400,2.443807373046875,3.022135019302368,1.1437692642211914,10.162318229675293
1667255124340286700,2.44628662109375,2.8905298709869385,1.210768222808838,10.16710376739502
1667255124342766000,2.44876611328125,2.7278177738189697,1.2658032178878784,10.13599681854248
1667255124345245200,2.4512451171875,2.557927370071411,1.2969099283218384,10.14317512512207
1667255124347724500,2.453724609375,2.383251428604126,1.332802176475525,10.145567893981934
1667255124350204000,2.456203857421875,2.2061824798583984,1.3567304611206055,10.131211280822754
1667255124352683000,2.45868310546875,2.053041934967041,1.3471591472625732,10.162318229675293
1667255124355162400,2.461162353515625,1.923829436302185,1.3591232299804688,10.186245918273926
1667255124357641500,2.463641357421875,1.8305093050003052,1.3758729696273804,10.200602531433105
1667255124360120800,2.466120849609375,1.765903115272522,1.3615161180496216,10.212567329406738
1667255124362600200,2.46860009765625,1.7324036359786987,1.3854442834854126,10.212567329406738
1667255124365079300,2.471079345703125,1.7252250909805298,1.3902299404144287,10.226923942565918
1667255124367558700,2.47355859375,1.730010747909546,1.4213366508483887,10.241280555725098
1667255124370038000,2.4760380859375,1.7682958841323853,1.428515076637268,10.234102249145508
1667255124372517000,2.47851708984375,1.852044701576233,1.430907964706421,10.200602531433105
1667255124374996500,2.48099658203125,1.9645073413848877,1.4333007335662842,10.159924507141113
1667255124377475800,2.483475830078125,2.0889341831207275,1.4620146751403809,10.12881851196289
1667255124379955000,2.485954833984375,2.210968017578125,1.454836130142212,10.076175689697266
1667255124382434300,2.488434326171875,2.335394859313965,1.4500504732131958,10.078569412231445
1667255124384913700,2.49091357421875,2.478964328765869,1.459621787071228,10.073782920837402
1667255124387392800,2.493392822265625,2.610569477081299,1.4644074440002441,10.073782920837402
1667255124389872000,2.4958720703125,2.7517459392547607,1.4739787578582764,10.092926025390625
1667255124392351500,2.4983515625,2.8977081775665283,1.4739787578582764,10.112068176269531
1667255124394830600,2.50083056640625,3.029313564300537,1.4476577043533325,10.126425743103027
1667255124397310000,2.50331005859375,3.13220477104187,1.428515076637268,10.138389587402344
1667255124399789300,2.505789306640625,3.2446675300598145,1.399801254272461,10.126425743103027
1667255124402268400,2.508268310546875,3.3379876613616943,1.3615161180496216,10.080962181091309
1667255124404747800,2.510747802734375,3.3882367610931396,1.306481122970581,10.037891387939453
1667255124407227000,2.513226806640625,3.404986619949341,1.2658032178878784,9.949356079101562
1667255124409706200,2.515706298828125,3.431307554244995,1.2251251935958862,9.851250648498535
1667255124412185600,2.518185546875,3.414557933807373,1.1868400573730469,9.757930755615234
1667255124414664700,2.520664794921875,3.3714871406555176,1.1581261157989502,9.65503978729248
1667255124417144000,2.52314404296875,3.321237802505493,1.1341979503631592,9.571290969848633
1667255124419623400,2.52562353515625,3.2542388439178467,1.1150553226470947,9.487542152404785
1667255124422102500,2.5281025390625,3.1752755641937256,1.1078768968582153,9.399007797241211
1667255124424582000,2.530581787109375,3.0939197540283203,1.100698471069336,9.317651748657227
1667255124427061200,2.533061279296875,3.036491870880127,1.1078768968582153,9.260223388671875
1667255124429540400,2.535540283203125,3.0077781677246094,1.1485549211502075,9.214759826660156
1667255124432019700,2.538019775390625,3.0029923915863037,1.1940184831619263,9.174081802368164
1667255124434498800,2.540498779296875,3.019742250442505,1.2011969089508057,9.123832702636719
1667255124436978200,2.542978271484375,3.036491870880127,1.2203395366668701,9.090332984924316
1667255124439457500,2.54545751953125,3.050848960876465,1.2681959867477417,9.044869422912598
1667255124441936600,2.5479365234375,3.077169895172119,1.2945170402526855,8.973084449768066
1667255124444416000,2.550416015625,3.105883836746216,1.34476637840271,8.906085968017578
1667255124446895400,2.552895263671875,3.136990547180176,1.399801254272461,8.848658561706543
1667255124449374500,2.55537451171875,3.160918712615967,1.4428720474243164,8.796015739440918
1667255124451853800,2.557853759765625,3.177668571472168,1.4883357286453247,8.752944946289062
1667255124454333200,2.560333251953125,3.1992039680480957,1.5194423198699951,8.72183895111084
1667255124456812300,2.562812255859375,3.2207393646240234,1.545763373374939,8.685946464538574
1667255124459291600,2.565291748046875,3.249453067779541,1.5433706045150757,8.659625053405762
1667255124461771000,2.56777099609375,3.2590243816375732,1.5433706045150757,8.609375953674316
1667255124464250000,2.57025,3.273381471633911,1.5194423198699951,8.571090698242188
1667255124466729500,2.5727294921875,3.263810157775879,1.5002998113632202,8.554341316223145
1667255124469208600,2.57520849609375,3.2590243816375732,1.5002998113632202,8.547162055969238
1667255124471688000,2.57768798828125,3.2542388439178467,1.4979069232940674,8.539983749389648
1667255124474167300,2.580167236328125,3.266202926635742,1.4979069232940674,8.537590980529785
1667255124476646400,2.582646484375,3.28773832321167,1.5098711252212524,8.575876235961914
1667255124479125800,2.585125732421875,3.3092737197875977,1.5146567821502686,8.616554260253906
1667255124481605000,2.587605224609375,3.3308091163635254,1.5242279767990112,8.628518104553223
1667255124484084200,2.590084228515625,3.3475589752197266,1.5649060010910034,8.650053977966309
1667255124486563600,2.5925634765625,3.3547372817993164,1.5936198234558105,8.666803359985352
1667255124489043000,2.59504296875,3.3547372817993164,1.6319050788879395,8.681160926818848
1667255124491522000,2.59752197265625,3.3403804302215576,1.6654045581817627,8.681160926818848
1667255124494001400,2.60000146484375,3.3164522647857666,1.679761528968811,8.671588897705078
1667255124496480800,2.602480712890625,3.3068809509277344,1.6965112686157227,8.664410591125488
1667255124498960000,2.6049599609375,3.311666488647461,1.7084753513336182,8.630910873413086
1667255124501439200,2.607439208984375,3.2997024059295654,1.7084753513336182,8.597412109375
1667255124503918600,2.609918701171875,3.2925238609313965,1.6821542978286743,8.561519622802734
1667255124506397700,2.612397705078125,3.2757742404937744,1.667797327041626,8.549555778503418
1667255124508877000,2.614876953125,3.2614171504974365,1.6271194219589233,8.518448829650879
1667255124511356200,2.617356201171875,3.2685956954956055,1.588834285736084,8.520841598510742
1667255124513835500,2.61983544921875,3.2853455543518066,1.5385849475860596,8.523234367370605
1667255124516315000,2.62231494140625,3.31884503364563,1.4620146751403809,8.499305725097656
1667255124518794000,2.6247939453125,3.34995174407959,1.3830515146255493,8.47298526763916
1667255124521273300,2.6272734375,3.4002010822296143,1.301695466041565,8.427521705627441
1667255124523752700,2.629752685546875,3.421736478805542,1.2299108505249023,8.37009334564209
1667255124526231800,2.632231689453125,3.4480574131011963,1.1629117727279663,8.281558990478516
1667255124528711200,2.634711181640625,3.4743785858154297,1.0791629552841187,8.228917121887207
1667255124531190500,2.6371904296875,3.4911282062530518,1.0121639966964722,8.164310455322266
1667255124533669600,2.639669677734375,3.493520975112915,0.9547362327575684,8.133204460144043
1667255124536149000,2.64214892578125,3.476771354675293,0.9044869542121887,8.094919204711914
1667255124538628400,2.64462841796875,3.452843189239502,0.8901300430297852,8.054241180419922
1667255124541107500,2.647107421875,3.4193434715270996,0.9068797826766968,7.9968132972717285
1667255124543586800,2.6495869140625,3.3858439922332764,0.9092726111412048,7.975277900695801
1667255124546066200,2.652066162109375,3.342773199081421,0.9308080077171326,7.987242221832275
1667255124548545300,2.654545166015625,3.2709884643554688,0.9667003750801086,8.00638484954834
1667255124551024600,2.657024658203125,3.1657042503356934,1.0217353105545044,8.0350980758667
1667255124553504000,2.65950390625,3.077169895172119,1.0911271572113037,8.049455642700195
1667255124555983000,2.661983154296875,2.9958138465881348,1.1748759746551514,8.056633949279785
1667255124558462500,2.66446240234375,2.9144580364227295,1.2562319040298462,8.082955360412598
1667255124560941600,2.666941650390625,2.840280532836914,1.3495519161224365,8.13798999786377
1667255124563421000,2.6694208984375,2.792423963546753,1.4261223077774048,8.166703224182129
1667255124565900300,2.671900390625,2.7517459392547607,1.5337992906570435,8.181060791015625
1667255124568379400,2.67437939453125,2.7254250049591064,1.648654818534851,8.22413158416748
1667255124570858800,2.676858642578125,2.7038896083831787,1.7252250909805298,8.26241683959961
1667255124573338000,2.679338134765625,2.6799614429473877,1.7850457429885864,8.298309326171875
1667255124575817200,2.681817138671875,2.675175666809082,1.8376877307891846,8.343772888183594
1667255124578296600,2.684296630859375,2.6727828979492188,1.8376877307891846,8.403593063354492
1667255124580776000,2.68677587890625,2.7182464599609375,1.8233308792114258,8.444271087646484
1667255124583255000,2.689255126953125,2.775674343109131,1.8113667964935303,8.477770805358887
1667255124585734400,2.691734375,2.854637384414673,1.7826528549194336,8.496912956237793
1667255124588213500,2.694213623046875,2.9479575157165527,1.7467604875564575,8.530412673950195
1667255124590692900,2.69669287109375,3.043670415878296,1.7060825824737549,8.542376518249512
1667255124593172200,2.699172119140625,3.1441688537597656,1.6701902151107788,8.559126853942871
1667255124595651300,2.7016513671875,3.2446675300598145,1.6295121908187866,8.585447311401367
1667255124598130700,2.704130615234375,3.328416347503662,1.5960127115249634,8.635697364807129
1667255124600610000,2.706610107421875,3.3930225372314453,1.5649060010910034,8.707481384277344
1667255124603089200,2.709089111328125,3.4480574131011963,1.545763373374939,8.757730484008789
1667255124605568500,2.711568603515625,3.4959139823913574,1.521835207939148,8.805587768554688
1667255124608047900,2.7140478515625,3.524627685546875,1.5074782371520996,8.824729919433594
1667255124610527000,2.71652685546875,3.548556089401245,1.4739787578582764,8.85344409942627
1667255124613006300,2.71900634765625,3.562912940979004,1.4333007335662842,8.874979019165039
1667255124615485700,2.721485595703125,3.5437703132629395,1.3758729696273804,8.886942863464355
1667255124617964800,2.72396484375,3.4983067512512207,1.3399807214736938,8.915657043457031
1667255124620444200,2.726444091796875,3.4408788681030273,1.3280165195465088,8.944371223449707
1667255124622923500,2.728923583984375,3.390629768371582,1.31365966796875,8.944371223449707
1667255124625402600,2.731402587890625,3.3547372817993164,1.2945170402526855,8.989834785461426
1667255124627882000,2.733882080078125,3.294916868209839,1.3040883541107178,9.044869422912598
1667255124630361300,2.736361328125,3.2470602989196777,1.3160524368286133,9.09990406036377
1667255124632840400,2.73884033203125,3.211168050765991,1.3567304611206055,9.200403213500977
1667255124635319800,2.74131982421875,3.1920254230499268,1.3878371715545654,9.286544799804688
1667255124637799000,2.743798828125,3.1489546298980713,1.4428720474243164,9.394221305847168
1667255124640278300,2.7462783203125,3.1034910678863525,1.4883357286453247,9.489934921264648
1667255124642757600,2.748757568359375,3.0580272674560547,1.521835207939148,9.559326171875
1667255124645236700,2.75123681640625,3.005385160446167,1.5337992906570435,9.621540069580078
1667255124647716000,2.753716064453125,2.950350284576416,1.5553346872329712,9.7005033493042
1667255124650195500,2.756195556640625,2.909672260284424,1.550549030303955,9.738788604736328
1667255124652674600,2.758674560546875,2.8833513259887695,1.5433706045150757,9.791430473327637
1667255124655154000,2.76115380859375,2.840280532836914,1.521835207939148,9.834501266479492
1667255124657633300,2.76363330078125,2.8187451362609863,1.5146567821502686,9.879964828491211
1667255124660112400,2.7661123046875,2.823530673980713,1.5026925802230835,9.906285285949707
1667255124662591700,2.768591796875,2.837887763977051,1.4883357286453247,9.934999465942383
1667255124665071000,2.771071044921875,2.8666014671325684,1.4763715267181396,9.930213928222656
1667255124667550200,2.77355029296875,2.9144580364227295,1.4811571836471558,9.915857315063477
1667255124670029600,2.776029541015625,2.9599215984344482,1.495514154434204,9.870393753051758
1667255124672509000,2.778509033203125,2.998206853866577,1.5242279767990112,9.81535816192627
1667255124674988000,2.780988037109375,3.0388846397399902,1.552941918373108,9.765109062194824
1667255124677467400,2.78346728515625,3.0723843574523926,1.581655740737915,9.698110580444336
1667255124679946800,2.78594677734375,3.098705291748047,1.6366907358169556,9.645467758178711
1667255124682425900,2.78842578125,3.1274192333221436,1.7084753513336182,9.580862045288086
1667255124684905200,2.7909052734375,3.129812002182007,1.7682958841323853,9.511469841003418
1667255124687384600,2.793384521484375,3.1178479194641113,1.8305093050003052,9.470791816711426
1667255124689863700,2.79586376953125,3.0963125228881836,1.8855443000793457,9.454042434692383
1667255124692343000,2.798343017578125,3.0723843574523926,1.9645073413848877,9.415757179260254
1667255124694822100,2.800822265625,3.0412776470184326,2.007578134536743,9.382257461547852
1667255124697301500,2.803301513671875,2.9838497638702393,2.0338993072509766,9.360722541809082
1667255124699780900,2.80578076171875,2.926422119140625,2.0267207622528076,9.332008361816406
1667255124702260000,2.808260009765625,2.8522446155548096,2.021935224533081,9.30329418182373
1667255124704739300,2.8107392578125,2.7661030292510986,2.012363910675049,9.332008361816406
1667255124707218700,2.81321875,2.6943182945251465,1.978864312171936,9.30329418182373
1667255124709697800,2.81569775390625,2.6225335597991943,1.9621145725250244,9.274580955505371
1667255124712177200,2.81817724609375,2.555534601211548,1.9621145725250244,9.241081237792969
1667255124714656500,2.820656494140625,2.526820659637451,1.9669002294540405,9.20279598236084
1667255124717135600,2.823135498046875,2.526820659637451,1.9956140518188477,9.166903495788574
1667255124719615000,2.825614990234375,2.548356056213379,2.014756679534912,9.140582084655762
1667255124722094300,2.82809423828125,2.6177480220794678,2.038684844970703,9.097511291503906
1667255124724573400,2.830573486328125,2.723032236099243,2.0506489276885986,9.047262191772461
1667255124727052800,2.833052734375,2.816352367401123,2.0745773315429688,9.008976936340332
1667255124729532200,2.8355322265625,2.8833513259887695,2.062613010406494,8.982656478881836
1667255124732011300,2.83801123046875,2.9288148880004883,2.0482561588287354,8.95394229888916
1667255124734490600,2.84049072265625,2.9718856811523438,2.045863389968872,8.891729354858398
1667255124736970000,2.842969970703125,2.998206853866577,2.00518536567688,8.85344409942627
1667255124739449000,2.845448974609375,3.0269205570220947,1.9812572002410889,8.800801277160645
1667255124741928400,2.847928466796875,3.050848960876465,1.9525432586669922,8.752944946289062
1667255124744407800,2.85040771484375,3.053241729736328,1.9142581224441528,8.688339233398438
1667255124746887000,2.852886962890625,3.036491870880127,1.856830358505249,8.595019340515137
1667255124749366300,2.8553662109375,3.022135019302368,1.801795482635498,8.525627136230469
1667255124751845400,2.857845458984375,2.9862427711486816,1.730010747909546,8.441878318786621
1667255124754324700,2.86032470703125,2.9383862018585205,1.6654045581817627,8.34855842590332
1667255124756804000,2.86280419921875,2.9001009464263916,1.5984054803848267,8.264809608459473
1667255124759283200,2.865283203125,2.8833513259887695,1.5050854682922363,8.183453559875488
1667255124761762600,2.867762451171875,2.861815929412842,1.397408366203308,8.118846893310547
1667255124764242000,2.870241943359375,2.840280532836914,1.3088740110397339,8.054241180419922
1667255124766721000,2.872720947265625,2.837887763977051,1.215553879737854,8.003992080688477
1667255124769200400,2.875200439453125,2.833101987838745,1.1078768968582153,7.9585280418396
1667255124771679700,2.8776796875,2.823530673980713,1.0289137363433838,7.929814338684082
1667255124774158800,2.880158935546875,2.837887763977051,0.9499505758285522,7.908278942108154
1667255124776638200,2.88263818359375,2.8594231605529785,0.885344386100769,7.8819580078125
1667255124779117600,2.88511767578125,2.9072794914245605,0.849452018737793,7.865208148956299
1667255124781596700,2.8875966796875,2.9599215984344482,0.8135597109794617,7.869993686676025
1667255124784076000,2.890075927734375,3.0245277881622314,0.8207381963729858,7.898707389831543
1667255124786555400,2.892555419921875,3.091526746749878,0.8614161610603333,7.903493404388428
1667255124789034500,2.895034423828125,3.1513473987579346,0.9212366938591003,7.939385414123535
1667255124791513900,2.897513916015625,3.218346357345581,0.9667003750801086,7.975277900695801
1667255124793993200,2.8999931640625,3.25663161277771,1.031306505203247,8.011170387268066
1667255124796472300,2.902472412109375,3.304488182067871,1.1174482107162476,8.059026718139648
1667255124798951700,2.90495166015625,3.345165967941284,1.210768222808838,8.109275817871094
1667255124801431000,2.90743115234375,3.3643085956573486,1.2969099283218384,8.161917686462402
1667255124803910100,2.90991015625,3.376272678375244,1.3878371715545654,8.226524353027344
1667255124806389500,2.912389404296875,3.3882367610931396,1.4500504732131958,8.276773452758789
1667255124808868600,2.91486865234375,3.404986619949341,1.4979069232940674,8.338987350463867
1667255124811348000,2.917347900390625,3.414557933807373,1.5696916580200195,8.413164138793945
1667255124813827300,2.919827392578125,3.407379388809204,1.6175481081008911,8.499305725097656
1667255124816306400,2.922306396484375,3.397808074951172,1.6462619304656982,8.58784008026123
1667255124818785800,2.924785888671875,3.38105845451355,1.6773686408996582,8.671588897705078
1667255124821265200,2.92726513671875,3.3619158267974854,1.7012969255447388,8.752944946289062
1667255124823744300,2.929744140625,3.342773199081421,1.7228323221206665,8.82951545715332
1667255124826223600,2.9322236328125,3.3164522647857666,1.7228323221206665,8.891729354858398
1667255124828703000,2.934702880859375,3.3092737197875977,1.7324036359786987,8.925228118896484
1667255124831182000,2.93718212890625,3.2709884643554688,1.7467604875564575,8.973084449768066
1667255124833661400,2.939661376953125,3.2279176712036133,1.765903115272522,8.989834785461426
1667255124836140800,2.942140869140625,3.1896326541900635,1.7754744291305542,9.013762474060059
1667255124838620000,2.944619873046875,3.146561861038208,1.7611174583435059,9.040083885192871
1667255124841099300,2.947099365234375,3.0939197540283203,1.7754744291305542,9.061619758605957
1667255124843578600,2.94957861328125,3.043670415878296,1.7826528549194336,9.056833267211914
1667255124846057700,2.9520576171875,2.991028308868408,1.7754744291305542,9.06401252746582
1667255124848537000,2.954537109375,2.943171739578247,1.7682958841323853,9.07119083404541
1667255124851016400,2.957016357421875,2.8905298709869385,1.734796404838562,9.075976371765137
1667255124853495600,2.95949560546875,2.8522446155548096,1.7060825824737549,9.07119083404541
1667255124855975000,2.961974853515625,2.8354947566986084,1.679761528968811,9.066405296325684
1667255124858454000,2.9644541015625,2.833101987838745,1.648654818534851,9.061619758605957
1667255124860933400,2.966933349609375,2.825923442840576,1.6199408769607544,9.028120040893555
1667255124863412700,2.969412841796875,2.825923442840576,1.5984054803848267,8.9850492477417
1667255124865891800,2.971891845703125,2.8139593601226807,1.5720844268798828,8.963513374328613
1667255124868371200,2.97437109375,2.8139593601226807,1.5601203441619873,8.944371223449707
1667255124870850600,2.9768505859375,2.8139593601226807,1.5553346872329712,8.927620887756348
1667255124873329700,2.97932958984375,2.792423963546753,1.5649060010910034,8.951549530029297
1667255124875809000,2.98180908203125,2.7804598808288574,1.5720844268798828,8.944371223449707
1667255124878288400,2.984288330078125,2.7637102603912354,1.5960127115249634,8.982656478881836
1667255124880767500,2.986767578125,2.744567632675171,1.6031911373138428,9.023334503173828
1667255124883246800,2.989246826171875,2.7110681533813477,1.6271194219589233,9.073583602905273
1667255124885726200,2.991726318359375,2.6727828979492188,1.6247265338897705,9.126225471496582
1667255124888205300,2.994205322265625,2.641676187515259,1.6223337650299072,9.20997428894043
1667255124890684700,2.9966845703125,2.60339093208313,1.6271194219589233,9.305686950683594
1667255124893164000,2.9991640625,2.562713146209717,1.6175481081008911,9.379864692687988
1667255124895643100,3.00164306640625,2.557927370071411,1.5960127115249634,9.454042434692383
1667255124898122500,3.00412255859375,2.589034080505371,1.581655740737915,9.521040916442871
1667255124900601900,3.006601806640625,2.6608188152313232,1.5744773149490356,9.590433120727539
1667255124903081000,3.0090810546875,2.7493531703948975,1.5912270545959473,9.659825325012207
1667255124905560300,3.011560302734375,2.8283164501190186,1.6103696823120117,9.693324089050293
1667255124908039700,3.014039794921875,2.8929226398468018,1.6223337650299072,9.731609344482422
1667255124910518800,3.016518798828125,2.9790642261505127,1.6342978477478027,9.743574142456055
1667255124912998100,3.018998046875,3.0723843574523926,1.6175481081008911,9.745966911315918
1667255124915477500,3.0214775390625,3.170490026473999,1.5984054803848267,9.750752449035645
1667255124917956600,3.02395654296875,3.232703447341919,1.5792629718780518,9.760323524475098
1667255124920436000,3.02643603515625,3.2590243816375732,1.557727575302124,9.741181373596191
1667255124922915300,3.028915283203125,3.2853455543518066,1.526620864868164,9.748359680175781
1667255124925394400,3.03139453125,3.297309637069702,1.5242279767990112,9.767501831054688
1667255124927873800,3.033873779296875,3.31884503364563,1.5194423198699951,9.772287368774414
1667255124930353200,3.036353271484375,3.3236305713653564,1.5146567821502686,9.774680137634277
1667255124932832300,3.038832275390625,3.3236305713653564,1.5337992906570435,9.781859397888184
1667255124935311600,3.0413115234375,3.3379876613616943,1.5553346872329712,9.765109062194824
1667255124937791000,3.043791015625,3.3571300506591797,1.5840486288070679,9.76989459991455
1667255124940270000,3.04627001953125,3.3930225372314453,1.6103696823120117,9.765109062194824
1667255124942749400,3.04874951171875,3.4025938510894775,1.648654818534851,9.767501831054688
1667255124945228800,3.051228759765625,3.4193434715270996,1.6821542978286743,9.76989459991455
1667255124947708000,3.0537080078125,3.421736478805542,1.703689694404602,9.760323524475098
1667255124950187300,3.056187255859375,3.4002010822296143,1.7276179790496826,9.748359680175781
1667255124952666400,3.058666259765625,3.3475589752197266,1.7228323221206665,9.748359680175781
1667255124955145700,3.061145751953125,3.25663161277771,1.7132610082626343,9.734002113342285
1667255124957625000,3.063625,3.1585259437561035,1.698904037475586,9.719645500183105
1667255124960104200,3.066104248046875,3.0628130435943604,1.6558332443237305,9.702896118164062
1667255124962583600,3.06858349609375,2.9623143672943115,1.6103696823120117,9.68375301361084
1667255124965063000,3.07106298828125,2.8737800121307373,1.5936198234558105,9.643074989318848
1667255124967542000,3.0735419921875,2.801995277404785,1.5744773149490356,9.609575271606445
1667255124970021400,3.076021484375,2.7349963188171387,1.550549030303955,9.578469276428223
1667255124972500700,3.078500732421875,2.6632115840911865,1.545763373374939,9.547362327575684
1667255124974979800,3.080979736328125,2.60339093208313,1.5481562614440918,9.509077072143555
1667255124977459200,3.083459228515625,2.555534601211548,1.5314065217971802,9.468399047851562
1667255124979938600,3.0859384765625,2.5363919734954834,1.5146567821502686,9.43489933013916
1667255124982417700,3.088417724609375,2.524427890777588,1.5194423198699951,9.410971641540527
1667255124984897000,3.09089697265625,2.517249345779419,1.5098711252212524,9.360722541809082
1667255124987376400,3.09337646484375,2.5076780319213867,1.521835207939148,9.329615592956543
1667255124989855500,3.09585546875,2.5387847423553467,1.5098711252212524,9.284152030944824
1667255124992334800,3.0983349609375,2.5770699977874756,1.4787644147872925,9.260223388671875
1667255124994814200,3.100814208984375,2.589034080505371,1.428515076637268,9.205188751220703
1667255124997293300,3.103293212890625,2.6009981632232666,1.3710874319076538,9.133403778076172
1667255124999772700,3.105772705078125,2.6536402702331543,1.306481122970581,9.025727272033691
1667255125002252000,3.108251953125,2.715853691101074,1.2251251935958862,8.922835350036621
1667255125004731100,3.110731201171875,2.7637102603912354,1.155733346939087,8.848658561706543
1667255125007210500,3.11321044921875,2.7972097396850586,1.0671988725662231,8.772088050842285
1667255125009689900,3.11568994140625,2.8043880462646484,1.0121639966964722,8.709874153137207
1667255125012169000,3.1181689453125,2.830709218978882,0.9667003750801086,8.669196128845215
1667255125014648300,3.1206484375,2.8666014671325684,0.9427721500396729,8.630910873413086
1667255125017127700,3.123127685546875,2.8929226398468018,0.9284151792526245,8.61176872253418
1667255125019606800,3.125606689453125,2.9072794914245605,0.9523434042930603,8.606983184814453
1667255125022086100,3.128086181640625,2.9048867225646973,0.9978070259094238,8.60459041595459
1667255125024565500,3.1305654296875,2.9048867225646973,1.069591760635376,8.614161491394043
1667255125027044600,3.133044677734375,2.885744094848633,1.1389836072921753,8.666803359985352
1667255125029524000,3.13552392578125,2.864208698272705,1.215553879737854,8.72183895111084
1667255125032003300,3.13800341796875,2.830709218978882,1.2873386144638062,8.812766075134277
1667255125034482400,3.140482421875,2.8139593601226807,1.3519448041915894,8.908478736877441
1667255125036961800,3.1429619140625,2.8115665912628174,1.430907964706421,9.037691116333008
1667255125039441000,3.14544091796875,2.823530673980713,1.5074782371520996,9.157332420349121
1667255125041920300,3.147920166015625,2.8498518466949463,1.5649060010910034,9.255437850952148
1667255125044399600,3.150399658203125,2.8905298709869385,1.6462619304656982,9.34875774383545
1667255125046878700,3.152878662109375,2.974278450012207,1.7180466651916504,9.437292098999023
1667255125049358000,3.155358154296875,3.060420274734497,1.7539390325546265,9.506684303283691
1667255125051837400,3.15783740234375,3.1489546298980713,1.7850457429885864,9.561718940734863
1667255125054316800,3.16031689453125,3.266202926635742,1.8065811395645142,9.585647583007812
1667255125056796000,3.1627958984375,3.34995174407959,1.797009825706482,9.588040351867676
1667255125059275300,3.165275146484375,3.4241292476654053,1.7587246894836426,9.588040351867676
1667255125061754600,3.167754638671875,3.4672000408172607,1.6845471858978271,9.58325481414795
1667255125064233700,3.170233642578125,3.5222349166870117,1.5912270545959473,9.559326171875
1667255125066713000,3.172713134765625,3.538984775543213,1.4859428405761719,9.518648147583008
1667255125069192200,3.175192138671875,3.507878065109253,1.3878371715545654,9.45882797241211
1667255125071671600,3.177671630859375,3.469592809677124,1.31365966796875,9.399007797241211
1667255125074151000,3.18015087890625,3.4121651649475098,1.2442678213119507,9.329615592956543
1667255125076630000,3.182630126953125,3.342773199081421,1.2179467678070068,9.243474006652832
1667255125079109400,3.185109375,3.280559778213501,1.2035897970199585,9.159725189208984
1667255125081588700,3.187588623046875,3.1992039680480957,1.179661512374878,9.061619758605957
1667255125084067800,3.19006787109375,3.136990547180176,1.1748759746551514,8.97787094116211
1667255125086547200,3.192547119140625,3.0580272674560547,1.179661512374878,8.908478736877441
1667255125089026600,3.195026611328125,2.9790642261505127,1.1724830865859985,8.872586250305176
1667255125091505700,3.197505615234375,2.8977081775665283,1.184447169303894,8.85344409942627
1667255125093985000,3.199985107421875,2.840280532836914,1.1988041400909424,8.81515884399414
1667255125096464400,3.20246435546875,2.8354947566986084,1.2131611108779907,8.798408508300781
1667255125098943500,3.204943603515625,2.857030153274536,1.246660590171814,8.791230201721191
1667255125101422800,3.2074228515625,2.895315408706665,1.2897313833236694,8.788837432861328
1667255125103902200,3.209902099609375,2.9312076568603516,1.332802176475525,8.774480819702148
